"Time (s)","Acceleration x (m/s^2)","Acceleration y (m/s^2)","Acceleration z (m/s^2)","Absolute acceleration (m/s^2)"
1.944546500E-2,2.110500038E-1,1.017000079E0,1.125105095E1,1.129889281E1
2.164631100E-2,1.156949997E0,1.062000036E0,1.003395081E1,1.015610881E1
2.437623400E-2,1.126049995E0,1.146000028E0,9.421050072E0,9.557064879E0
2.684169600E-2,6.870000362E-1,1.101000071E0,9.868950844E0,9.953911842E0
2.930700300E-2,9.840000272E-1,1.137000084E0,9.535950661E0,9.653775440E0
3.177222400E-2,9.120000601E-1,1.170000076E0,9.943050385E0,1.005310376E1
3.423768600E-2,9.529500604E-1,1.102950096E0,1.008195019E1,1.018677242E1
3.670299300E-2,9.720000625E-1,1.102950096E0,1.006305027E1,1.016987039E1
3.916853200E-2,9.409500360E-1,1.090950012E0,1.005600071E1,1.015867655E1
4.163407000E-2,9.679500461E-1,1.077000022E0,9.988950729E0,1.009336381E1
4.409956100E-2,8.910000324E-1,1.050000072E0,9.874050140E0,9.969616210E0
4.656509900E-2,9.240000248E-1,1.090950012E0,9.939000130E0,1.004129830E1
4.903009900E-2,9.199500680E-1,1.102950096E0,9.988950729E0,1.009167695E1
5.149556100E-2,8.770500422E-1,1.137000084E0,9.706050873E0,9.811697586E0
5.396086900E-2,9.120000601E-1,1.089000106E0,9.781050682E0,9.883654071E0
5.642608900E-2,8.890500665E-1,1.086000085E0,9.964950562E0,1.006330194E1
5.889155100E-2,8.239500523E-1,1.090950012E0,9.975000381E0,1.006825199E1
6.135678200E-2,8.140500188E-1,1.096050024E0,9.782999992E0,9.877808053E0
6.382208900E-2,9.079500437E-1,1.114950061E0,9.757050514E0,9.862429805E0
6.628755100E-2,9.240000248E-1,1.113000035E0,9.898050308E0,1.000319674E1
6.875276200E-2,9.390000701E-1,1.062000036E0,9.985950470E0,1.008606821E1
7.121806900E-2,9.169500470E-1,1.089000106E0,9.951000214E0,1.005231933E1
7.368353100E-2,9.390000701E-1,1.110000014E0,9.985950470E0,1.009123520E1
7.614876200E-2,8.959500194E-1,1.101000071E0,9.988950729E0,1.008930445E1
7.861406900E-2,8.860500455E-1,1.093950033E0,9.838050842E0,9.938262209E0
8.107921800E-2,8.860500455E-1,1.141050100E0,9.840000153E0,9.945485560E0
8.354452600E-2,9.559500217E-1,1.098000050E0,1.000800037E1,1.011333358E1
8.600998800E-2,8.770500422E-1,1.102950096E0,9.868950844E0,9.969047419E0
8.847498800E-2,1.030050039E0,1.110000014E0,9.864000320E0,9.979559381E0
9.094044900E-2,9.390000701E-1,1.066950083E0,9.997950554E0,1.009847112E1
9.340541500E-2,8.599500656E-1,1.057950020E0,9.898050308E0,9.991505005E0
9.587087700E-2,8.839500546E-1,1.102950096E0,9.699000359E0,9.801452676E0
9.833610700E-2,8.770500422E-1,1.074000001E0,9.840000153E0,9.937217708E0
1.008011070E-1,9.340500236E-1,1.093950033E0,9.946050644E0,1.004953230E1
1.032662610E-1,9.559500217E-1,1.149000049E0,9.844950676E0,9.957765581E0
1.057311940E-1,9.199500680E-1,1.134000063E0,9.892950058E0,1.000013626E1
1.081958870E-1,9.769500494E-1,1.062000036E0,1.002495003E1,1.012827224E1
1.106610410E-1,9.319500327E-1,1.074000001E0,1.002195072E1,1.012232696E1
1.131257330E-1,9.769500494E-1,1.093950033E0,9.994050026E0,1.010109865E1
1.155906560E-1,9.319500327E-1,1.102950096E0,9.970050812E0,1.007407281E1
1.180555300E-1,6.160500050E-1,1.149000049E0,9.472050667E0,9.561352548E0
1.205204530E-1,1.048950076E0,1.042950034E0,9.838050842E0,9.948632339E0
1.229853760E-1,1.003950000E0,9.709500670E-1,1.035795021E1,1.045168849E1
1.254503760E-1,8.569500446E-1,1.125000000E0,1.004895020E1,1.014797460E1
1.279158380E-1,1.055999994E0,1.077000022E0,1.000305080E1,1.011613021E1
1.303808480E-1,1.008000016E0,1.065000057E0,1.015200043E1,1.025735842E1
1.328456940E-1,8.170500398E-1,1.074000001E0,9.840000153E0,9.932101982E0
1.353109250E-1,9.390000701E-1,1.102950096E0,9.832950592E0,9.939071254E0
1.377759250E-1,9.010500312E-1,1.089000106E0,9.994050026E0,1.009350525E1
1.402411560E-1,8.770500422E-1,1.057950020E0,9.840000153E0,9.935495862E0
1.427066740E-1,8.929500580E-1,1.101000071E0,9.804000854E0,9.905957486E0
1.451719050E-1,9.199500680E-1,1.084050059E0,9.928950310E0,1.003023065E1
1.476376740E-1,9.919500351E-1,1.096050024E0,9.955050468E0,1.006420987E1
1.501029050E-1,8.790000677E-1,1.062000036E0,9.820950508E0,9.917235203E0
1.525682130E-1,8.959500194E-1,1.074000001E0,9.864000320E0,9.962665545E0
1.550336690E-1,9.439500570E-1,1.134000063E0,9.951000214E0,1.005979140E1
1.574989000E-1,9.919500351E-1,1.101000071E0,9.948000908E0,1.005777749E1
1.599642080E-1,9.439500570E-1,1.137000084E0,9.970050812E0,1.007897436E1
1.624296690E-1,9.030000567E-1,1.101000071E0,9.952950478E0,1.005429428E1
1.648949770E-1,9.580500722E-1,1.120050073E0,9.892950058E0,1.000214142E1
1.673604380E-1,9.030000567E-1,1.090950012E0,9.832950592E0,9.934409815E0
1.698256690E-1,9.360000491E-1,1.098000050E0,9.892950058E0,9.997607766E0
1.722909770E-1,9.220500588E-1,1.065000057E0,9.948000908E0,1.004724457E1
1.747564380E-1,9.049500227E-1,1.090950012E0,9.876000404E0,9.977198528E0
1.772217460E-1,9.919500351E-1,1.096050024E0,9.733050346E0,9.844671634E0
1.796872800E-1,1.024950027E0,1.074000001E0,9.706050873E0,9.818931821E0
1.821527410E-1,8.650500178E-1,1.030950069E0,1.001805019E1,1.010804132E1
1.846182800E-1,9.390000701E-1,1.093950033E0,1.002195072E1,1.012511452E1
1.870838180E-1,9.199500680E-1,1.081950068E0,9.931050301E0,1.003208274E1
1.895491260E-1,8.620500565E-1,1.108050108E0,1.007700062E1,1.017432292E1
1.920146500E-1,7.930500507E-1,1.108050108E0,9.898050308E0,9.991401470E0
1.944798810E-1,9.289500713E-1,1.108050108E0,9.916950226E0,1.002180747E1
1.969454190E-1,9.529500604E-1,1.108050108E0,1.000800037E1,1.011414655E1
1.994109580E-1,9.390000701E-1,1.120050073E0,9.975000381E0,1.008151109E1
2.018764190E-1,9.220500588E-1,1.081950068E0,9.931050301E0,1.003227553E1
2.043420250E-1,9.510000348E-1,1.108050108E0,9.879000664E0,9.986332171E0
2.068072560E-1,9.199500680E-1,1.057950020E0,9.994050026E0,1.009190776E1
2.092724090E-1,9.270000458E-1,1.093950033E0,1.005600071E1,1.015771658E1
2.117377170E-1,9.150000215E-1,1.086000085E0,1.003395081E1,1.013394247E1
2.142031790E-1,9.340500236E-1,1.110000014E0,9.928950310E0,1.003437112E1
2.166687700E-1,9.240000248E-1,1.141050100E0,9.778050423E0,9.887671184E0
2.191342320E-1,9.360000491E-1,1.114950061E0,9.784950256E0,9.892646827E0
2.215997700E-1,9.480000734E-1,1.096050024E0,9.859950066E0,9.965874025E0
2.240653090E-1,9.360000491E-1,1.077000022E0,9.919050217E0,1.002115674E1
2.265305390E-1,8.770500422E-1,1.086000085E0,9.910050392E0,1.000788248E1
2.289957510E-1,9.010500312E-1,1.108050108E0,9.850050926E0,9.953048249E0
2.314610590E-1,9.360000491E-1,1.086000085E0,9.862050056E0,9.965717415E0
2.339265970E-1,9.240000248E-1,1.045950055E0,9.862050056E0,9.960312188E0
2.363920590E-1,9.120000601E-1,1.120050073E0,9.916950226E0,1.002158461E1
2.388573660E-1,9.120000601E-1,1.117050052E0,9.927000046E0,1.003119509E1
2.413225680E-1,9.559500217E-1,1.134000063E0,9.892950058E0,1.000351226E1
2.437877990E-1,9.439500570E-1,1.004999995E0,9.898050308E0,9.993621296E0
2.462530300E-1,9.529500604E-1,1.102950096E0,9.940950394E0,1.004724377E1
2.487182610E-1,9.600000381E-1,1.053000093E0,9.936000824E0,1.003765519E1
2.511834910E-1,9.460500479E-1,1.045950055E0,9.898050308E0,9.998020910E0
2.536489670E-1,9.079500437E-1,1.057950020E0,9.888000488E0,9.985799176E0
2.789592300E-1,9.199500680E-1,1.078950047E0,9.876000404E0,9.977265423E0
2.814244610E-1,9.049500227E-1,1.098000050E0,9.927000046E0,1.002845295E1
2.838899220E-1,8.929500580E-1,1.053000093E0,9.940950394E0,1.003636706E1
2.863552300E-1,9.100500345E-1,1.084050059E0,9.904950142E0,1.000556810E1
2.888207690E-1,8.839500546E-1,1.098000050E0,9.915000916E0,1.001469994E1
2.912862770E-1,9.169500470E-1,1.141050100E0,9.915000916E0,1.002247653E1
2.937518160E-1,9.289500713E-1,1.113000035E0,9.915000916E0,1.002042716E1
2.962175850E-1,9.679500461E-1,1.072050095E0,9.888000488E0,9.992936123E0
2.986832000E-1,9.360000491E-1,1.110000014E0,9.960000038E0,1.006527679E1
3.011487390E-1,9.220500588E-1,1.101000071E0,9.964950562E0,1.006790034E1
3.036142000E-1,9.360000491E-1,1.093950033E0,9.984000206E0,1.008727331E1
3.060797390E-1,9.439500570E-1,1.101000071E0,9.922050476E0,1.002747867E1
3.085453540E-1,9.010500312E-1,1.077000022E0,9.910050392E0,1.000904186E1
3.110108160E-1,9.199500680E-1,1.090950012E0,9.903000832E0,1.000529388E1
3.134763540E-1,9.049500227E-1,1.101000071E0,9.931050301E0,1.003279103E1
3.159418930E-1,9.100500345E-1,1.033950090E0,9.888000488E0,9.983476224E0
3.184074310E-1,9.390000701E-1,1.054949999E0,9.900000572E0,1.000023260E1
3.208729690E-1,9.630000591E-1,1.069950104E0,9.948000908E0,1.005161104E1
3.233382770E-1,9.120000601E-1,1.066950083E0,9.940950394E0,1.003955284E1
3.258040460E-1,9.100500345E-1,1.060050011E0,9.886050224E0,9.984281954E0
3.282693870E-1,9.240000248E-1,1.081950068E0,9.912000656E0,1.001359820E1
3.307348490E-1,9.030000567E-1,1.108050108E0,9.924000740E0,1.002641386E1
3.332003870E-1,9.270000458E-1,1.108050108E0,9.934050560E0,1.003854893E1
3.356659260E-1,9.289500713E-1,1.053000093E0,9.952950478E0,1.005151634E1
3.381314640E-1,9.510000348E-1,1.069950104E0,9.919050217E0,1.002181378E1
3.405970790E-1,9.480000734E-1,1.062000036E0,9.874050140E0,9.976142260E0
3.430623100E-1,9.220500588E-1,1.081950068E0,9.915000916E0,1.001638834E1
3.455278490E-1,9.289500713E-1,1.149000049E0,9.931050301E0,1.004036401E1
3.479933100E-1,9.079500437E-1,1.114950061E0,9.951000214E0,1.005434693E1
3.504589260E-1,9.199500680E-1,1.069950104E0,9.948000908E0,1.004757799E1
3.529244730E-1,9.649500251E-1,1.072050095E0,9.891000748E0,9.995614826E0
3.553899350E-1,9.289500713E-1,1.113000035E0,9.907050133E0,1.001256009E1
3.578551650E-1,9.360000491E-1,1.096050024E0,9.927000046E0,1.003108926E1
3.603204730E-1,9.049500227E-1,1.086000085E0,9.948000908E0,1.004793774E1
3.627859350E-1,8.910000324E-1,1.078950047E0,9.888000488E0,9.986519310E0
3.652515020E-1,9.220500588E-1,1.078950047E0,9.856950760E0,9.958603707E0
3.677170410E-1,9.319500327E-1,1.102950096E0,9.924000740E0,1.002850041E1
3.701825790E-1,9.030000567E-1,1.090950012E0,9.868950844E0,9.970043721E0
3.726478100E-1,8.929500580E-1,1.081950068E0,9.900000572E0,9.998899294E0
3.751131180E-1,9.319500327E-1,1.077000022E0,9.904950142E0,1.000682253E1
3.775785880E-1,9.220500588E-1,1.062000036E0,9.880950928E0,9.980541650E0
3.800438190E-1,8.980500698E-1,1.077000022E0,9.934050560E0,1.003253624E1
3.825093570E-1,9.319500327E-1,1.101000071E0,9.951000214E0,1.005500558E1
3.849746650E-1,9.120000601E-1,1.102950096E0,9.955050468E0,1.005739891E1
3.874402030E-1,9.289500713E-1,1.101000071E0,9.900000572E0,1.000425713E1
3.899054580E-1,9.360000491E-1,1.098000050E0,9.900000572E0,1.000458453E1
3.923709200E-1,9.199500680E-1,1.093950033E0,9.940950394E0,1.004318324E1
3.948365350E-1,9.030000567E-1,1.101000071E0,9.907050133E0,1.000885871E1
3.973019970E-1,9.240000248E-1,1.065000057E0,9.867000580E0,9.967231391E0
3.997675350E-1,9.480000734E-1,1.081950068E0,9.970050812E0,1.007329307E1
4.022331700E-1,9.150000215E-1,1.096050024E0,9.943050385E0,1.004503866E1
4.046989390E-1,8.890500665E-1,1.096050024E0,9.955050468E0,1.005458928E1
4.071644770E-1,9.199500680E-1,1.114950061E0,9.924000740E0,1.002871938E1
4.096300930E-1,8.910000324E-1,1.132050037E0,9.964950562E0,1.006854796E1
4.120955540E-1,9.100500345E-1,1.081950068E0,9.907050133E0,1.000741971E1
4.145610870E-1,9.439500570E-1,1.048050046E0,9.915000916E0,1.001482370E1
4.170266250E-1,9.199500680E-1,1.048050046E0,9.931050301E0,1.002848329E1
4.194922410E-1,8.670000434E-1,1.060050011E0,9.936000824E0,1.002993058E1
4.219580870E-1,9.270000458E-1,1.078950047E0,9.892950058E0,9.994694750E0
4.244236250E-1,9.240000248E-1,1.078950047E0,9.886050224E0,9.987587211E0
4.268891550E-1,9.049500227E-1,1.062000036E0,9.895050049E0,9.992937210E0
4.293546160E-1,8.959500194E-1,1.069950104E0,9.903000832E0,1.000084722E1
4.318202320E-1,9.199500680E-1,1.084050059E0,9.922050476E0,1.002340054E1
4.342860010E-1,9.049500227E-1,1.096050024E0,9.940950394E0,1.004204934E1
4.367515390E-1,9.150000215E-1,1.072050095E0,9.924000740E0,1.002358754E1
4.392171830E-1,9.169500470E-1,1.065000057E0,9.912000656E0,1.001113278E1
4.416826440E-1,8.550000191E-1,1.069950104E0,9.874050140E0,9.968584876E0
4.441482600E-1,9.319500327E-1,1.081950068E0,9.964950562E0,1.006674657E1
4.466140290E-1,9.559500217E-1,1.108050108E0,9.927000046E0,1.003428848E1
4.490796440E-1,9.360000491E-1,1.113000035E0,9.879000664E0,9.985465402E0
4.515454710E-1,8.980500698E-1,1.093950033E0,9.856950760E0,9.958046941E0
4.540113180E-1,9.529500604E-1,1.090950012E0,9.936000824E0,1.004103571E1
4.564770870E-1,9.049500227E-1,1.098000050E0,9.963000298E0,1.006409030E1
4.589426250E-1,9.270000458E-1,1.122000098E0,9.952950478E0,1.005879896E1
4.614081640E-1,9.340500236E-1,1.089000106E0,9.868950844E0,9.972690782E0
4.638737600E-1,9.169500470E-1,1.093950033E0,9.931050301E0,1.003310940E1
4.663395290E-1,9.460500479E-1,1.090950012E0,9.991050720E0,1.009486390E1
4.688050680E-1,9.700500369E-1,1.086000085E0,9.975000381E0,1.008072546E1
4.712706830E-1,9.010500312E-1,1.081950068E0,9.880950928E0,9.980766421E0
4.737362220E-1,9.220500588E-1,1.096050024E0,9.886050224E0,9.989268792E0
4.762017270E-1,8.929500580E-1,1.065000057E0,9.892950058E0,9.990097386E0
4.786672660E-1,8.929500580E-1,1.069950104E0,9.976950645E0,1.007381245E1
4.811327270E-1,9.220500588E-1,1.086000085E0,9.997950554E0,1.009893993E1
4.835983430E-1,9.319500327E-1,1.078950047E0,9.948000908E0,1.004964607E1
4.860638040E-1,8.839500546E-1,1.038000107E0,9.940950394E0,1.003400751E1
4.885291310E-1,9.150000215E-1,1.041000009E0,9.900000572E0,9.996545273E0
4.909945920E-1,9.390000701E-1,1.090950012E0,9.898050308E0,1.000216441E1
4.934601310E-1,8.839500546E-1,1.069950104E0,9.919050217E0,1.001567362E1
4.959256690E-1,9.319500327E-1,1.078950047E0,9.895050049E0,9.997233594E0
4.983912850E-1,9.319500327E-1,1.084050059E0,9.879000664E0,9.981901097E0
5.008565100E-1,8.980500698E-1,1.137000084E0,9.952950478E0,1.005785695E1
5.033219720E-1,9.120000601E-1,1.081950068E0,9.946050644E0,1.004620742E1
5.057872800E-1,8.839500546E-1,1.105949998E0,9.912000656E0,1.001260456E1
5.082530490E-1,9.240000248E-1,1.150950074E0,9.891000748E0,1.000051788E1
5.107183570E-1,9.220500588E-1,1.081950068E0,9.898050308E0,9.999609601E0
5.131838950E-1,9.270000458E-1,1.089000106E0,9.964950562E0,1.006704972E1
5.156496640E-1,9.010500312E-1,1.074000001E0,9.960000038E0,1.005817916E1
5.181152030E-1,8.890500665E-1,1.098000050E0,9.888000488E0,9.988421686E0
5.205808180E-1,9.049500227E-1,1.081950068E0,9.904950142E0,1.000487820E1
5.230466640E-1,9.240000248E-1,1.102950096E0,9.924000740E0,1.002776474E1
5.255121160E-1,9.600000381E-1,1.078950047E0,9.931050301E0,1.003551161E1
5.279779620E-1,9.580500722E-1,1.093950033E0,9.912000656E0,1.001810080E1
5.304435010E-1,9.340500236E-1,1.072050095E0,9.910050392E0,1.001153533E1
5.329090390E-1,9.529500604E-1,1.045950055E0,9.958050728E0,1.005807634E1
5.353746540E-1,9.289500713E-1,1.062000036E0,9.931050301E0,1.003078025E1
5.378401070E-1,8.790000677E-1,1.105949998E0,9.960000038E0,1.005969022E1
5.403056450E-1,9.049500227E-1,1.098000050E0,9.936000824E0,1.003736275E1
5.427709530E-1,9.289500713E-1,1.108050108E0,9.922050476E0,1.002685439E1
5.452364920E-1,9.390000701E-1,1.108050108E0,9.943050385E0,1.004856941E1
5.477022610E-1,9.510000348E-1,1.089000106E0,9.940950394E0,1.004553717E1
5.501678610E-1,9.390000701E-1,1.054949999E0,9.924000740E0,1.002399278E1
5.526336300E-1,8.890500665E-1,1.066950083E0,9.900000572E0,9.996939723E0
5.550991690E-1,9.030000567E-1,1.033950090E0,9.972000122E0,1.006604432E1
5.575644770E-1,9.010500312E-1,1.102950096E0,9.946050644E0,1.004750285E1
5.600302460E-1,8.839500546E-1,1.101000071E0,9.895050049E0,9.995278101E0
5.624955400E-1,9.079500437E-1,1.084050059E0,9.915000916E0,1.001532730E1
5.649613860E-1,9.049500227E-1,1.089000106E0,9.964950562E0,1.006504324E1
5.674271550E-1,8.980500698E-1,1.078950047E0,9.871950150E0,9.971260045E0
5.698927700E-1,8.980500698E-1,1.060050011E0,9.916950226E0,1.001379557E1
5.723583090E-1,8.980500698E-1,1.098000050E0,9.934050560E0,1.003481233E1
5.748240680E-1,9.010500312E-1,1.093950033E0,9.951000214E0,1.005141896E1
5.772899140E-1,9.390000701E-1,1.078950047E0,9.931050301E0,1.003352453E1
5.797552220E-1,9.220500588E-1,1.077000022E0,9.907050133E0,1.000798420E1
5.822206830E-1,9.270000458E-1,1.057950020E0,9.924000740E0,1.002319201E1
5.846862800E-1,9.030000567E-1,1.084050059E0,9.910050392E0,1.000997864E1
5.871518180E-1,9.360000491E-1,1.089000106E0,9.931050301E0,1.003432994E1
5.896173570E-1,9.240000248E-1,1.053000093E0,9.936000824E0,1.003427614E1
5.920831260E-1,9.150000215E-1,1.120050073E0,9.912000656E0,1.001696033E1
5.945486640E-1,9.079500437E-1,1.102950096E0,9.879000664E0,9.981759680E0
5.970142800E-1,9.199500680E-1,1.074000001E0,9.898050308E0,9.998559098E0
5.994797410E-1,9.220500588E-1,1.093950033E0,9.960000038E0,1.006223155E1
6.019455880E-1,8.689500690E-1,1.090950012E0,9.895050049E0,9.992860532E0
6.044111260E-1,9.010500312E-1,1.093950033E0,9.891000748E0,9.992022499E0
6.068763570E-1,9.439500570E-1,1.057950020E0,9.915000916E0,1.001586457E1
6.093419510E-1,9.120000601E-1,1.096050024E0,9.936000824E0,1.003778771E1
6.118071820E-1,9.340500236E-1,1.078950047E0,9.946050644E0,1.004791053E1
6.142727200E-1,9.150000215E-1,1.072050095E0,9.910050392E0,1.000977598E1
6.167381820E-1,9.150000215E-1,1.062000036E0,9.915000916E0,1.001360636E1
6.192031820E-1,9.169500470E-1,1.102950096E0,9.958050728E0,1.006081859E1
6.216686440E-1,9.390000701E-1,1.086000085E0,9.952950478E0,1.005596045E1
6.241338750E-1,8.860500455E-1,1.101000071E0,9.928950310E0,1.002902488E1
6.265991830E-1,8.550000191E-1,1.081950068E0,9.931050301E0,1.002633538E1
6.290647210E-1,9.030000567E-1,1.093950033E0,9.900000572E0,1.000110729E1
6.315302600E-1,9.270000458E-1,1.074000001E0,9.898050308E0,9.999210218E0
6.339957880E-1,9.409500360E-1,1.084050059E0,9.916950226E0,1.002030206E1
6.364610190E-1,8.959500194E-1,1.072050095E0,9.912000656E0,1.000998376E1
6.389264810E-1,8.929500580E-1,1.113000035E0,9.916950226E0,1.001908332E1
6.413917880E-1,9.100500345E-1,1.117050052E0,9.960000038E0,1.006367689E1
6.438573270E-1,9.340500236E-1,1.114950061E0,9.891000748E0,9.997372599E0
6.463232020E-1,9.169500470E-1,1.074000001E0,9.879000664E0,9.979425209E0
6.487886640E-1,9.079500437E-1,1.093950033E0,9.924000740E0,1.002531250E1
6.512542020E-1,9.010500312E-1,1.098000050E0,9.880950928E0,9.982519046E0
6.537198170E-1,8.790000677E-1,1.110000014E0,9.916950226E0,1.001751680E1
6.561852790E-1,8.959500194E-1,1.090950012E0,9.958050728E0,1.005761764E1
6.586508170E-1,9.319500327E-1,1.113000035E0,9.976950645E0,1.008200596E1
6.611160480E-1,9.319500327E-1,1.110000014E0,9.888000488E0,9.993657216E0
6.635813560E-1,9.150000215E-1,1.081950068E0,9.924000740E0,1.002465120E1
6.660471250E-1,8.910000324E-1,1.066950083E0,9.916950226E0,1.001389861E1
6.685124330E-1,9.340500236E-1,1.078950047E0,9.946050644E0,1.004791053E1
6.709782020E-1,9.240000248E-1,1.062000036E0,9.912000656E0,1.001146229E1
6.734435100E-1,9.289500713E-1,1.066950083E0,9.895050049E0,9.995666370E0
6.759090480E-1,9.220500588E-1,1.077000022E0,9.904950142E0,1.000590539E1
6.783745870E-1,8.890500665E-1,1.060050011E0,9.922050476E0,1.001804381E1
6.808401250E-1,9.150000215E-1,1.113000035E0,9.910050392E0,1.001424450E1
6.833058980E-1,8.980500698E-1,1.120050073E0,9.928950310E0,1.003220117E1
6.857714370E-1,8.809500337E-1,1.105949998E0,9.927000046E0,1.002718945E1
6.882369750E-1,9.390000701E-1,1.065000057E0,9.922050476E0,1.002312486E1
6.907025140E-1,9.079500437E-1,1.098000050E0,9.972000122E0,1.007326977E1
6.931678220E-1,8.890500665E-1,1.089000106E0,9.934050560E0,1.003303004E1
6.956330480E-1,9.199500680E-1,1.086000085E0,9.948000908E0,1.004929980E1
6.980985870E-1,9.319500327E-1,1.101000071E0,9.951000214E0,1.005500558E1
7.005641250E-1,9.340500236E-1,1.072050095E0,9.948000908E0,1.004910259E1
7.030298940E-1,9.289500713E-1,1.072050095E0,9.900000572E0,1.000111249E1
7.054951250E-1,9.240000248E-1,1.098000050E0,9.924000740E0,1.002722149E1
7.079603650E-1,9.030000567E-1,1.065000057E0,9.951000214E0,1.004848444E1
7.104256730E-1,9.220500588E-1,1.072050095E0,9.970050812E0,1.006982527E1
7.128909030E-1,9.649500251E-1,1.081950068E0,9.975000381E0,1.007980045E1
7.153563650E-1,9.199500680E-1,1.105949998E0,9.871950150E0,9.976213374E0
7.178216730E-1,8.929500580E-1,1.089000106E0,9.904950142E0,1.000456488E1
7.202871200E-1,9.319500327E-1,1.102950096E0,9.871950150E0,9.976995015E0
7.227526590E-1,9.049500227E-1,1.120050073E0,9.900000572E0,1.000417203E1
7.252179660E-1,9.460500479E-1,1.084050059E0,9.886050224E0,9.990203414E0
7.276835050E-1,9.390000701E-1,1.102950096E0,9.888000488E0,9.993536596E0
7.301489660E-1,8.740500212E-1,1.125000000E0,9.900000572E0,1.000197979E1
7.326142740E-1,9.079500437E-1,1.129050016E0,9.900000572E0,1.000545544E1
7.350797360E-1,9.240000248E-1,1.066950083E0,9.952950478E0,1.005253111E1
7.375450430E-1,9.079500437E-1,1.086000085E0,9.903000832E0,1.000365908E1
7.400105820E-1,8.860500455E-1,1.110000014E0,9.888000488E0,9.989481386E0
7.424758130E-1,9.010500312E-1,1.072050095E0,9.919050217E0,1.001742181E1
7.449413750E-1,9.460500479E-1,1.122000098E0,9.910050392E0,1.001813324E1
7.474071440E-1,9.120000601E-1,1.086000085E0,9.924000740E0,1.002481576E1
7.498724520E-1,9.079500437E-1,1.024049997E0,9.970050812E0,1.006354634E1
7.523382210E-1,9.270000458E-1,1.105949998E0,9.898050308E0,1.000269236E1
7.548035290E-1,9.049500227E-1,1.108050108E0,9.964950562E0,1.006712219E1
7.572689860E-1,9.580500722E-1,1.096050024E0,9.940950394E0,1.004697369E1
7.597346010E-1,9.460500479E-1,1.086000085E0,9.916950226E0,1.002099340E1
7.622000620E-1,9.100500345E-1,1.102950096E0,9.939000130E0,1.004133525E1
7.646659090E-1,9.409500360E-1,1.102950096E0,9.960000038E0,1.006496332E1
7.671315240E-1,9.220500588E-1,1.074000001E0,9.985950470E0,1.008577509E1
7.695970620E-1,9.199500680E-1,1.090950012E0,9.960000038E0,1.006171361E1
7.720626010E-1,9.100500345E-1,1.065000057E0,9.886050224E0,9.984808722E0
7.745280620E-1,9.079500437E-1,1.102950096E0,9.898050308E0,1.000061359E1
7.769936010E-1,9.079500437E-1,1.057950020E0,9.934050560E0,1.003140030E1
7.794592160E-1,9.240000248E-1,1.060050011E0,9.970050812E0,1.006873355E1
7.819247690E-1,8.980500698E-1,1.078950047E0,9.939000130E0,1.003764667E1
7.843906150E-1,9.169500470E-1,1.101000071E0,9.900000572E0,1.000315000E1
7.868561530E-1,9.220500588E-1,1.101000071E0,9.928950310E0,1.003226952E1
7.893219230E-1,9.600000381E-1,1.066950083E0,9.946050644E0,1.004907488E1
7.917875380E-1,9.220500588E-1,1.110000014E0,9.892950058E0,9.997636580E0
7.942533030E-1,9.079500437E-1,1.089000106E0,9.916950226E0,1.001779398E1
7.967192260E-1,8.839500546E-1,1.081950068E0,9.927000046E0,1.002483484E1
7.991849960E-1,9.199500680E-1,1.090950012E0,9.916950226E0,1.001910085E1
8.016505340E-1,9.169500470E-1,1.053000093E0,9.886050224E0,9.984167247E0
8.041160730E-1,8.910000324E-1,1.098000050E0,9.847950935E0,9.948950839E0
8.065816250E-1,9.120000601E-1,1.074000001E0,9.862050056E0,9.962191096E0
8.090472400E-1,9.240000248E-1,1.072050095E0,9.891000748E0,9.991744755E0
8.115124710E-1,9.289500713E-1,1.084050059E0,9.955050468E0,1.005689528E1
8.139782400E-1,8.809500337E-1,1.069950104E0,1.001805019E1,1.011346607E1
8.164437790E-1,8.910000324E-1,1.093950033E0,9.904950142E0,1.000493104E1
8.189091210E-1,9.049500227E-1,1.089000106E0,9.898050308E0,9.998812713E0
8.213746590E-1,9.270000458E-1,1.066950083E0,9.931050301E0,1.003112514E1
8.238401210E-1,9.360000491E-1,1.078950047E0,9.958050728E0,1.005997036E1
8.263057360E-1,9.220500588E-1,1.090950012E0,9.916950226E0,1.001929389E1
8.287715050E-1,9.240000248E-1,1.072050095E0,9.915000916E0,1.001550351E1
8.312370290E-1,9.049500227E-1,1.062000036E0,9.936000824E0,1.003348848E1
8.337026440E-1,9.100500345E-1,1.065000057E0,9.910050392E0,1.000857207E1
8.361681060E-1,9.240000248E-1,1.086000085E0,9.916950226E0,1.001893577E1
8.386336440E-1,9.270000458E-1,1.110000014E0,9.922050476E0,1.002688959E1
8.410991830E-1,9.079500437E-1,1.108050108E0,9.867000580E0,9.970448775E0
8.435644760E-1,8.980500698E-1,1.081950068E0,9.922050476E0,1.002118733E1
8.460300150E-1,9.030000567E-1,1.096050024E0,9.924000740E0,1.002509478E1
8.484955530E-1,9.150000215E-1,1.069950104E0,9.892950058E0,9.992621233E0
8.509613220E-1,9.030000567E-1,1.069950104E0,9.900000572E0,9.998510572E0
8.534271690E-1,9.220500588E-1,1.038000107E0,9.955050468E0,1.005140042E1
8.558924130E-1,9.010500312E-1,1.113000035E0,9.943050385E0,1.004564140E1
8.583582600E-1,8.959500194E-1,1.081950068E0,9.919050217E0,1.001802873E1
8.608234900E-1,9.100500345E-1,1.050000072E0,9.891000748E0,9.988122296E0
8.632890290E-1,9.079500437E-1,1.054949999E0,9.891000748E0,9.988452762E0
8.657545670E-1,9.240000248E-1,1.089000106E0,9.964950562E0,1.006677391E1
8.682201060E-1,9.319500327E-1,1.105949998E0,9.916950226E0,1.002185402E1
8.706857210E-1,9.169500470E-1,1.149000049E0,9.883950233E0,9.992670850E0
8.731512600E-1,8.980500698E-1,1.110000014E0,9.931050301E0,1.003316271E1
8.756164900E-1,9.409500360E-1,1.066950083E0,9.958050728E0,1.005915224E1
8.780820290E-1,9.289500713E-1,1.101000071E0,9.976950645E0,1.008041138E1
8.805477880E-1,9.460500479E-1,1.105949998E0,9.922050476E0,1.002822127E1
8.830136340E-1,9.270000458E-1,1.066950083E0,9.928950310E0,1.002904611E1
8.854794800E-1,9.100500345E-1,1.065000057E0,9.924000740E0,1.002238529E1
8.879447880E-1,8.959500194E-1,1.084050059E0,9.922050476E0,1.002122630E1
8.904105570E-1,8.910000324E-1,1.090950012E0,9.939000130E0,1.003831542E1
8.928758610E-1,8.929500580E-1,1.122000098E0,9.928950310E0,1.003196383E1
8.953416300E-1,9.030000567E-1,1.054949999E0,9.892950058E0,9.989934407E0
8.978074760E-1,8.980500698E-1,1.105949998E0,9.936000824E0,1.003761584E1
9.002730150E-1,9.199500680E-1,1.093950033E0,9.910050392E0,1.001259874E1
9.027385530E-1,9.199500680E-1,1.066950083E0,9.927000046E0,1.002646600E1
9.052037880E-1,9.199500680E-1,1.102950096E0,9.844950676E0,9.949163827E0
9.076693270E-1,8.959500194E-1,1.114950061E0,9.915000916E0,1.001763861E1
9.101346340E-1,9.480000734E-1,1.093950033E0,9.931050301E0,1.003599476E1
9.126000960E-1,9.220500588E-1,1.102950096E0,9.883950233E0,9.987950112E0
9.150657110E-1,9.220500588E-1,1.086000085E0,9.934050560E0,1.003568299E1
9.175312550E-1,9.360000491E-1,1.102950096E0,9.934050560E0,1.003882242E1
9.199967930E-1,9.150000215E-1,1.102950096E0,9.922050476E0,1.002500921E1
9.224625620E-1,9.030000567E-1,1.098000050E0,9.939000130E0,1.004015621E1
9.249278700E-1,9.240000248E-1,1.153050065E0,9.919050217E0,1.002850227E1
9.273936390E-1,9.220500588E-1,1.134000063E0,9.910050392E0,1.001724669E1
9.298591830E-1,8.980500698E-1,1.141050100E0,9.927000046E0,1.003263770E1
9.323247210E-1,9.240000248E-1,1.086000085E0,9.919050217E0,1.002101439E1
9.347905670E-1,9.559500217E-1,1.138950109E0,9.919050217E0,1.002988559E1
9.372561060E-1,9.799500704E-1,1.102950096E0,9.924000740E0,1.003307489E1
9.397217210E-1,9.010500312E-1,1.089000106E0,9.924000740E0,1.002415099E1
9.421871680E-1,9.199500680E-1,1.081950068E0,9.940950394E0,1.004188323E1
9.446527060E-1,9.460500479E-1,1.077000022E0,9.955050468E0,1.005773183E1
9.471186290E-1,9.460500479E-1,1.048050046E0,9.904950142E0,1.000507156E1
9.495841680E-1,9.199500680E-1,1.072050095E0,9.907050133E0,1.000725946E1
9.520497060E-1,9.240000248E-1,1.024049997E0,9.927000046E0,1.002236421E1
9.545151920E-1,9.240000248E-1,1.129050016E0,9.948000908E0,1.005441456E1
9.569805000E-1,9.100500345E-1,1.102950096E0,9.936000824E0,1.003836652E1
9.594460380E-1,9.079500437E-1,1.065000057E0,9.940950394E0,1.003897869E1
9.619115000E-1,9.120000601E-1,1.084050059E0,9.907050133E0,1.000782449E1
9.643771150E-1,9.049500227E-1,1.105949998E0,9.910050392E0,1.001255006E1
9.668426530E-1,9.580500722E-1,1.084050059E0,9.904950142E0,1.001004804E1
9.693084230E-1,9.240000248E-1,1.057950020E0,9.898050308E0,9.997221324E0
9.717737300E-1,8.910000324E-1,1.089000106E0,9.867000580E0,9.966820091E0
9.742392690E-1,8.860500455E-1,1.081950068E0,9.859950066E0,9.958630224E0
9.767048070E-1,9.169500470E-1,1.114950061E0,9.958050728E0,1.006214119E1
9.791700290E-1,9.010500312E-1,1.093950033E0,9.955050468E0,1.005542877E1
9.816354910E-1,9.390000701E-1,1.096050024E0,9.931050301E0,1.003537776E1
9.841007980E-1,9.120000601E-1,1.081950068E0,9.924000740E0,1.002437782E1
9.865662600E-1,8.910000324E-1,1.105949998E0,9.946050644E0,1.004693634E1
9.890317980E-1,9.199500680E-1,1.090950012E0,9.928950310E0,1.003097873E1
9.914971150E-1,9.390000701E-1,1.117050052E0,9.903000832E0,1.000994243E1
9.939623460E-1,9.030000567E-1,1.098000050E0,9.912000656E0,1.001342949E1
9.964278070E-1,9.240000248E-1,1.057950020E0,9.912000656E0,1.001103348E1
9.988931150E-1,9.360000491E-1,1.090950012E0,9.927000046E0,1.003053328E1
1.001358653E0,9.289500713E-1,1.126950026E0,9.910050392E0,1.001708857E1
1.003824115E0,9.220500588E-1,1.078950047E0,9.927000046E0,1.002794293E1
1.006289346E0,9.240000248E-1,1.024049997E0,9.916950226E0,1.001241011E1
1.008754961E0,9.340500236E-1,1.072050095E0,9.948000908E0,1.004910259E1
1.011220423E0,9.240000248E-1,1.134000063E0,9.927000046E0,1.003419464E1
1.013686038E0,9.169500470E-1,1.077000022E0,9.868950844E0,9.969800258E0
1.016151870E0,8.980500698E-1,1.057950020E0,9.888000488E0,9.984903897E0
1.018617332E0,8.620500565E-1,1.072050095E0,9.852000237E0,9.947579121E0
1.021082870E0,8.929500580E-1,1.105949998E0,9.855000496E0,9.956983478E0
1.023547870E0,9.319500327E-1,1.120050073E0,9.912000656E0,1.001852285E1
1.026013332E0,9.390000701E-1,1.110000014E0,9.850050926E0,9.956772791E0
1.028478650E0,9.270000458E-1,1.090950012E0,9.876000404E0,9.979222665E0
1.030944419E0,8.980500698E-1,1.081950068E0,9.931050301E0,1.003009820E1
1.033410034E0,9.289500713E-1,1.074000001E0,9.903000832E0,1.000429156E1
1.035875265E0,9.700500369E-1,1.102950096E0,9.847950935E0,9.956888752E0
1.038340726E0,9.049500227E-1,1.086000085E0,9.927000046E0,1.002714619E1
1.040806265E0,9.270000458E-1,1.077000022E0,9.915000916E0,1.001631176E1
1.043271803E0,9.460500479E-1,1.101000071E0,9.928950310E0,1.003450378E1
1.045737342E0,9.529500604E-1,1.060050011E0,9.928950310E0,1.003074644E1
1.048202650E0,9.240000248E-1,1.048050046E0,9.916950226E0,1.001489325E1
1.050668188E0,8.860500455E-1,1.077000022E0,9.927000046E0,1.002448720E1
1.053133640E0,8.959500194E-1,1.081950068E0,9.960000038E0,1.005857560E1
1.055598947E0,8.910000324E-1,1.089000106E0,9.919050217E0,1.001835114E1
1.058064717E0,9.010500312E-1,1.110000014E0,9.922050476E0,1.002452377E1
1.060530024E0,8.860500455E-1,1.086000085E0,9.874050140E0,9.973030986E0
1.062995793E0,9.340500236E-1,1.066950083E0,9.907050133E0,1.000802050E1
1.065461640E0,9.079500437E-1,1.066950083E0,9.943050385E0,1.004126519E1
1.067927178E0,8.929500580E-1,1.138950109E0,9.936000824E0,1.004085054E1
1.070392793E0,9.409500360E-1,1.141050100E0,9.924000740E0,1.003360219E1
1.072858332E0,9.100500345E-1,1.108050108E0,9.927000046E0,1.003001974E1
1.075323486E0,9.220500588E-1,1.108050108E0,9.912000656E0,1.001627218E1
1.077789019E0,9.630000591E-1,1.069950104E0,9.928950310E0,1.003275718E1
1.080254327E0,9.100500345E-1,1.098000050E0,9.876000404E0,9.978435707E0
1.082720096E0,9.169500470E-1,1.078950047E0,9.910050392E0,1.001069575E1
1.085185712E0,9.529500604E-1,1.096050024E0,9.922050476E0,1.002778765E1
1.087651173E0,9.199500680E-1,1.174950004E0,9.910050392E0,1.002177202E1
1.090116712E0,8.890500665E-1,1.114950061E0,9.975000381E0,1.007641584E1
1.092582019E0,8.910000324E-1,1.101000071E0,9.931050301E0,1.003154237E1
1.095047789E0,9.150000215E-1,1.113000035E0,9.907050133E0,1.001127547E1
1.097513327E0,9.289500713E-1,1.108050108E0,9.936000824E0,1.004065912E1
1.099978942E0,9.120000601E-1,1.054949999E0,9.975000381E0,1.007200557E1
1.102444770E0,9.030000567E-1,1.069950104E0,9.915000916E0,1.001336335E1
1.104910308E0,9.199500680E-1,1.053000093E0,9.874050140E0,9.972561531E0
1.107376077E0,9.289500713E-1,1.053000093E0,9.922050476E0,1.002092027E1
1.109841693E0,8.959500194E-1,1.060050011E0,9.985950470E0,1.008194620E1
1.112307154E0,8.980500698E-1,1.101000071E0,9.967050552E0,1.006780968E1
1.114772784E0,8.929500580E-1,1.089000106E0,9.912000656E0,1.001154524E1
1.117238245E0,9.150000215E-1,1.030950069E0,9.910050392E0,1.000545760E1
1.119703784E0,9.340500236E-1,1.114950061E0,9.952950478E0,1.005866722E1
1.122169399E0,9.480000734E-1,1.096050024E0,9.898050308E0,1.000357085E1
1.124634937E0,9.409500360E-1,1.117050052E0,9.888000488E0,9.995285961E0
1.127100491E0,9.010500312E-1,1.074000001E0,9.874050140E0,9.973075420E0
1.129566029E0,9.079500437E-1,1.120050073E0,9.907050133E0,1.001141987E1
1.132031568E0,9.199500680E-1,1.090950012E0,9.910050392E0,1.001227141E1
1.134497414E0,9.169500470E-1,1.045950055E0,9.958050728E0,1.005472939E1
1.136962876E0,9.199500680E-1,1.084050059E0,9.888000488E0,9.989696007E0
1.139428481E0,9.199500680E-1,1.117050052E0,9.936000824E0,1.004082772E1
1.141893943E0,9.820500612E-1,1.096050024E0,9.943050385E0,1.005136801E1
1.144359481E0,9.100500345E-1,1.053000093E0,9.895050049E0,9.992447935E0
1.146825096E0,9.240000248E-1,1.105949998E0,9.883950233E0,9.988462027E0
1.149290635E0,9.150000215E-1,1.029000044E0,9.912000656E0,1.000718857E1
1.151756467E0,9.120000601E-1,1.102950096E0,9.903000832E0,1.000588170E1
1.154221929E0,9.510000348E-1,1.096050024E0,9.934050560E0,1.003947644E1
1.156687467E0,9.169500470E-1,1.077000022E0,1.000305080E1,1.010256165E1
1.159153390E0,9.289500713E-1,1.065000057E0,9.948000908E0,1.004788015E1
1.161618929E0,9.409500360E-1,1.108050108E0,9.946050644E0,1.005172052E1
1.164084756E0,9.150000215E-1,1.105949998E0,9.903000832E0,1.000648669E1
1.166550525E0,9.360000491E-1,1.093950033E0,9.919050217E0,1.002299257E1
1.169016063E0,9.510000348E-1,1.086000085E0,9.927000046E0,1.003140704E1
1.171481679E0,9.030000567E-1,1.074000001E0,9.904950142E0,1.000384538E1
1.173947448E0,9.220500588E-1,1.042950034E0,9.982050896E0,1.007865374E1
1.176413294E0,9.049500227E-1,1.105949998E0,9.967050552E0,1.006896999E1
1.178879140E0,9.460500479E-1,1.066950083E0,9.907050133E0,1.000914759E1
1.181344987E0,9.480000734E-1,1.077000022E0,9.951000214E0,1.005390663E1
1.183811140E0,9.120000601E-1,1.110000014E0,9.922050476E0,1.002551394E1
1.186276448E0,9.100500345E-1,1.105949998E0,9.898050308E0,1.000113575E1
1.188741977E0,9.649500251E-1,1.093950033E0,9.946050644E0,1.005245137E1
1.191207515E0,9.340500236E-1,1.098000050E0,9.876000404E0,9.980653162E0
1.193673053E0,9.150000215E-1,1.120050073E0,9.912000656E0,1.001696033E1
1.196138900E0,9.409500360E-1,1.105949998E0,9.931050301E0,1.003664647E1
1.198604438E0,9.409500360E-1,1.084050059E0,9.922050476E0,1.002534973E1
1.201070217E0,9.460500479E-1,1.066950083E0,9.883950233E0,9.986283863E0
1.203535756E0,9.030000567E-1,1.102950096E0,9.900000572E0,1.000209575E1
1.206001294E0,9.289500713E-1,1.105949998E0,9.891000748E0,9.995897630E0
1.208466910E0,8.809500337E-1,1.060050011E0,9.871950150E0,9.967706795E0
1.210932371E0,8.770500422E-1,1.114950061E0,9.936000824E0,1.003675459E1
1.213397987E0,9.390000701E-1,1.084050059E0,9.910050392E0,1.001329039E1
1.215863525E0,9.409500360E-1,1.069950104E0,9.900000572E0,1.000200937E1
1.218328987E0,9.559500217E-1,1.086000085E0,9.900000572E0,1.000516107E1
1.220794602E0,9.409500360E-1,1.096050024E0,9.922050476E0,1.002665439E1
1.223260064E0,9.120000601E-1,1.102950096E0,9.970050812E0,1.007224683E1
1.225725679E0,8.770500422E-1,1.093950033E0,9.903000832E0,1.000176829E1
1.228191217E0,8.980500698E-1,1.122000098E0,9.895050049E0,9.998869617E0
1.230656679E0,9.270000458E-1,1.102950096E0,9.951000214E0,1.005476172E1
1.233122294E0,9.600000381E-1,1.050000072E0,9.883950233E0,9.985818566E0
1.235587756E0,9.289500713E-1,1.066950083E0,9.903000832E0,1.000353718E1
1.238053299E0,9.340500236E-1,1.113000035E0,9.903000832E0,1.000902812E1
1.240518838E0,9.169500470E-1,1.084050059E0,9.898050308E0,9.999368071E0
1.242984146E0,9.270000458E-1,1.110000014E0,9.960000038E0,1.006444384E1
1.245449915E0,9.220500588E-1,1.060050011E0,9.919050217E0,1.001805568E1
1.247915530E0,9.150000215E-1,1.086000085E0,9.903000832E0,1.000430141E1
1.250381308E0,9.529500604E-1,1.072050095E0,9.868950844E0,9.972642377E0
1.252846924E0,9.360000491E-1,1.065000057E0,9.915000916E0,1.001586563E1
1.255312155E0,8.980500698E-1,1.081950068E0,9.900000572E0,9.999356040E0
1.257777693E0,9.150000215E-1,1.069950104E0,9.883950233E0,9.983711258E0
1.260242924E0,9.199500680E-1,1.050000072E0,9.936000824E0,1.003358962E1
1.262708693E0,9.150000215E-1,1.074000001E0,9.958050728E0,1.005750841E1
1.265174231E0,9.199500680E-1,1.134000063E0,9.862050056E0,9.969568475E0
1.267639539E0,9.319500327E-1,1.102950096E0,9.898050308E0,1.000282109E1
1.270105078E0,8.929500580E-1,1.129050016E0,9.927000046E0,1.003082467E1
1.272570539E0,9.100500345E-1,1.084050059E0,9.892950058E0,9.993688831E0
1.275035852E0,8.910000324E-1,1.110000014E0,9.910050392E0,1.001174709E1
1.277501390E0,8.910000324E-1,1.120050073E0,9.931050301E0,1.003365105E1
1.279966929E0,9.340500236E-1,1.108050108E0,9.928950310E0,1.003415561E1
1.282432698E0,9.010500312E-1,1.057950020E0,9.907050133E0,1.000403877E1
1.284898006E0,9.120000601E-1,1.102950096E0,9.939000130E0,1.004151217E1
1.287363237E0,9.030000567E-1,1.084050059E0,9.952950478E0,1.005245228E1
1.289828775E0,9.439500570E-1,1.096050024E0,9.958050728E0,1.006256139E1
1.292294006E0,9.360000491E-1,1.096050024E0,9.903000832E0,1.000733967E1
1.294759467E0,9.150000215E-1,1.081950068E0,9.859950066E0,9.961247727E0
1.297225083E0,9.270000458E-1,1.105949998E0,9.904950142E0,1.000952006E1
1.299690530E0,9.340500236E-1,1.132050037E0,9.880950928E0,9.989353231E0
1.302156069E0,9.199500680E-1,1.132050037E0,9.883950233E0,9.991011842E0
1.304621300E0,8.929500580E-1,1.102950096E0,9.892950058E0,9.994214305E0
1.307086915E0,9.649500251E-1,1.089000106E0,9.907050133E0,1.001332573E1
1.309552376E0,9.319500327E-1,1.137000084E0,9.912000656E0,1.002043198E1
1.312017684E0,9.079500437E-1,1.114950061E0,9.900000572E0,1.000387416E1
1.314483530E0,9.340500236E-1,1.084050059E0,9.895050049E0,9.997981269E0
1.316949069E0,9.010500312E-1,1.081950068E0,9.903000832E0,1.000259629E1
1.319414838E0,9.240000248E-1,1.101000071E0,9.916950226E0,1.002057279E1
1.321880146E0,9.340500236E-1,1.114950061E0,9.919050217E0,1.002512445E1
1.324345664E0,9.340500236E-1,1.108050108E0,9.898050308E0,1.000358058E1
1.326811203E0,9.319500327E-1,1.081950068E0,9.919050217E0,1.002131249E1
1.329276664E0,9.439500570E-1,1.113000035E0,9.912000656E0,1.001886060E1
1.331742203E0,8.809500337E-1,1.084050059E0,9.919050217E0,1.001692541E1
1.334207741E0,9.439500570E-1,1.108050108E0,9.904950142E0,1.001133628E1
1.336672972E0,9.439500570E-1,1.098000050E0,9.871950150E0,9.977577139E0
1.339138510E0,9.049500227E-1,1.030950069E0,9.883950233E0,9.978690536E0
1.341603741E0,9.580500722E-1,1.084050059E0,9.922050476E0,1.002696914E1
1.344069049E0,9.529500604E-1,1.101000071E0,9.964950562E0,1.007077726E1
1.346534587E0,9.199500680E-1,1.057950020E0,9.912000656E0,1.001066049E1
1.349000054E0,9.100500345E-1,1.062000036E0,9.985950470E0,1.008341420E1
1.351465362E0,9.199500680E-1,1.090950012E0,9.960000038E0,1.006171361E1
1.353931131E0,9.199500680E-1,1.093950033E0,9.940950394E0,1.004318324E1
1.356396362E0,9.100500345E-1,1.101000071E0,9.931050301E0,1.003325233E1
1.358861669E0,9.460500479E-1,1.077000022E0,9.895050049E0,9.998347624E0
1.361327213E0,9.100500345E-1,1.086000085E0,9.912000656E0,1.001275907E1
1.363792751E0,9.049500227E-1,1.062000036E0,9.994050026E0,1.009097689E1
1.366258520E0,9.289500713E-1,1.069950104E0,9.970050812E0,1.007023608E1
1.368723751E0,9.460500479E-1,1.066950083E0,9.931050301E0,1.003290353E1
1.371189059E0,9.079500437E-1,1.084050059E0,9.903000832E0,1.000344757E1
1.373654222E0,9.049500227E-1,1.078950047E0,9.931050301E0,1.003039520E1
1.376119529E0,8.599500656E-1,1.125000000E0,9.922050476E0,1.002258573E1
1.378585299E0,8.530500531E-1,1.102950096E0,9.892950058E0,9.990728410E0
1.381050606E0,8.929500580E-1,1.041000009E0,9.886050224E0,9.980732932E0
1.383516145E0,9.439500570E-1,1.053000093E0,9.891000748E0,9.991583793E0
1.385981367E0,9.580500722E-1,1.048050046E0,9.910050392E0,1.001126204E1
1.388446828E0,9.120000601E-1,1.074000001E0,9.900000572E0,9.999761569E0
1.390912059E0,8.839500546E-1,1.089000106E0,9.838050842E0,9.937531550E0
1.393377367E0,9.199500680E-1,1.086000085E0,9.928950310E0,1.003044159E1
1.395842905E0,9.150000215E-1,1.072050095E0,9.939000130E0,1.003843813E1
1.398308750E0,8.650500178E-1,1.072050095E0,9.924000740E0,1.001915134E1
1.400774289E0,9.169500470E-1,1.156050086E0,9.951000214E0,1.005980390E1
1.403240058E0,9.169500470E-1,1.126950026E0,9.946050644E0,1.005160371E1
1.405705289E0,9.199500680E-1,1.077000022E0,9.979050636E0,1.007907182E1
1.408170904E0,9.390000701E-1,1.065000057E0,9.904950142E0,1.000619726E1
1.410636371E0,8.980500698E-1,1.089000106E0,9.931050301E0,1.003086114E1
1.413101909E0,9.120000601E-1,1.102950096E0,9.928950310E0,1.003156505E1
1.415567448E0,9.270000458E-1,1.126950026E0,9.967050552E0,1.007330344E1
1.418032755E0,9.010500312E-1,1.098000050E0,9.948000908E0,1.004889135E1
1.420498217E0,9.360000491E-1,1.105949998E0,9.934050560E0,1.003915246E1
1.422963823E0,9.120000601E-1,1.077000022E0,9.895050049E0,9.995183271E0
1.425429285E0,8.980500698E-1,1.057950020E0,9.876000404E0,9.973020413E0
1.427894592E0,9.120000601E-1,1.117050052E0,9.900000572E0,1.000447681E1
1.430360362E0,9.049500227E-1,1.066950083E0,9.952950478E0,1.005079799E1
1.432825977E0,9.319500327E-1,1.057950020E0,9.916950226E0,1.001667065E1
1.435291511E0,8.809500337E-1,1.108050108E0,9.904950142E0,1.000559270E1
1.437756741E0,8.740500212E-1,1.126950026E0,9.891000748E0,9.993291529E0
1.440222280E0,8.980500698E-1,1.077000022E0,9.940950394E0,1.003936839E1
1.442687818E0,9.240000248E-1,1.090950012E0,9.924000740E0,1.002645195E1
1.445153588E0,8.650500178E-1,1.134000063E0,9.936000824E0,1.003784738E1
1.447619131E0,8.839500546E-1,1.113000035E0,9.898050308E0,9.999576825E0
1.450084669E0,9.030000567E-1,1.077000022E0,9.919050217E0,1.001812834E1
1.452549977E0,9.439500570E-1,1.102950096E0,9.946050644E0,1.005144089E1
1.455015516E0,9.199500680E-1,1.062000036E0,9.936000824E0,1.003485249E1
1.457481058E0,8.839500546E-1,1.098000050E0,9.916950226E0,1.001662985E1
1.459946827E0,9.199500680E-1,1.089000106E0,9.924000740E0,1.002586755E1
1.462412058E0,9.220500588E-1,1.038000107E0,9.919050217E0,1.001574649E1
1.464877674E0,8.910000324E-1,1.086000085E0,9.916950226E0,1.001594624E1
1.467343212E0,9.030000567E-1,1.069950104E0,9.888000488E0,9.986628860E0
1.469808736E0,9.240000248E-1,1.065000057E0,9.888000488E0,9.988020566E0
1.472274506E0,9.199500680E-1,1.122000098E0,9.924000740E0,1.002950562E1
1.474739813E0,9.100500345E-1,1.110000014E0,9.891000748E0,9.994607891E0
1.477205583E0,9.600000381E-1,1.074000001E0,9.964950562E0,1.006853096E1
1.479671198E0,8.910000324E-1,1.120050073E0,9.907050133E0,1.000989688E1
1.482136952E0,9.240000248E-1,1.117050052E0,9.951000214E0,1.005604207E1
1.484602491E0,9.319500327E-1,1.090950012E0,9.928950310E0,1.003208638E1
1.487067798E0,9.270000458E-1,1.096050024E0,9.924000740E0,1.002728505E1
1.489533337E0,9.289500713E-1,1.156050086E0,9.943050385E0,1.005304188E1
1.491999106E0,9.100500345E-1,1.110000014E0,9.883950233E0,9.987630516E0
1.494464429E0,9.289500713E-1,1.072050095E0,9.915000916E0,1.001596140E1
1.496930198E0,9.340500236E-1,1.114950061E0,9.922050476E0,1.002809298E1
1.499395813E0,9.049500227E-1,1.129050016E0,9.900000572E0,1.000518365E1
1.501861352E0,8.959500194E-1,1.065000057E0,9.912000656E0,1.000923117E1
1.504326890E0,8.959500194E-1,1.072050095E0,9.852000237E0,9.950574180E0
1.506792039E0,9.079500437E-1,1.086000085E0,9.886050224E0,9.986879318E0
1.509257578E0,9.390000701E-1,1.098000050E0,9.907050133E0,1.001184137E1
1.511723116E0,9.340500236E-1,1.093950033E0,9.939000130E0,1.004255444E1
1.514188732E0,8.980500698E-1,1.089000106E0,9.912000656E0,1.001200141E1
1.516654501E0,9.049500227E-1,1.110000014E0,9.907050133E0,1.001002882E1
1.519119808E0,9.220500588E-1,1.090950012E0,1.000305080E1,1.010452243E1
1.521585655E0,9.100500345E-1,1.122000098E0,9.940950394E0,1.004537555E1
1.524051424E0,9.100500345E-1,1.125000000E0,9.892950058E0,9.998213686E0
1.526516732E0,9.150000215E-1,1.062000036E0,9.922050476E0,1.002058655E1
1.528982270E0,9.120000601E-1,1.053000093E0,9.912000656E0,1.000941109E1
1.531447727E0,9.409500360E-1,1.074000001E0,9.880950928E0,9.983589245E0
1.533913034E0,8.929500580E-1,1.086000085E0,9.939000130E0,1.003795196E1
1.536378496E0,8.860500455E-1,1.065000057E0,9.879000664E0,9.975668595E0
1.538843804E0,9.319500327E-1,1.098000050E0,9.934050560E0,1.003790294E1
1.541309342E0,9.030000567E-1,1.057950020E0,9.979050636E0,1.007552078E1
1.543774559E0,9.100500345E-1,1.081950068E0,9.904950142E0,1.000534079E1
1.546240328E0,9.270000458E-1,1.077000022E0,9.838050842E0,9.940146000E0
1.548705866E0,9.409500360E-1,1.065000057E0,9.879000664E0,9.980694676E0
1.551171097E0,9.439500570E-1,1.048050046E0,9.898050308E0,9.998042334E0
1.553636405E0,9.390000701E-1,1.110000014E0,9.888000488E0,9.994317126E0
1.556101650E0,9.319500327E-1,1.102950096E0,9.903000832E0,1.000771978E1
1.558567419E0,8.980500698E-1,1.060050011E0,9.943050385E0,1.003964396E1
1.561033034E0,8.980500698E-1,1.138950109E0,9.958050728E0,1.006312454E1
1.563498804E0,8.809500337E-1,1.090950012E0,9.948000908E0,1.004634097E1
1.565964342E0,9.360000491E-1,1.132050037E0,9.916950226E0,1.002514514E1
1.568429867E0,9.319500327E-1,1.089000106E0,9.855000496E0,9.958689014E0
1.570895174E0,9.529500604E-1,1.081950068E0,9.892950058E0,9.997459208E0
1.573360943E0,9.480000734E-1,1.090950012E0,9.910050392E0,1.001488766E1
1.575826482E0,8.959500194E-1,1.132050037E0,9.934050560E0,1.003840746E1
1.578292020E0,9.199500680E-1,1.093950033E0,9.940950394E0,1.004318324E1
1.580757583E0,8.959500194E-1,1.042950034E0,9.895050049E0,9.990119453E0
1.583222891E0,9.220500588E-1,1.120050073E0,9.903000832E0,1.000870191E1
1.585688352E0,9.049500227E-1,1.120050073E0,9.903000832E0,1.000714106E1
1.588153583E0,9.360000491E-1,1.084050059E0,9.958050728E0,1.006051862E1
1.590619121E0,9.169500470E-1,1.098000050E0,9.903000832E0,1.000578967E1
1.593084433E0,9.169500470E-1,1.072050095E0,9.915000916E0,1.001485556E1
1.595549587E0,9.460500479E-1,1.062000036E0,9.927000046E0,1.002836899E1
1.598014818E0,9.409500360E-1,1.105949998E0,9.924000740E0,1.002967113E1
1.600480048E0,9.010500312E-1,1.084050059E0,9.912000656E0,1.001173375E1
1.602945279E0,9.120000601E-1,1.065000057E0,9.916950226E0,1.001558141E1
1.605410592E0,9.169500470E-1,1.086000085E0,9.916950226E0,1.001828805E1
1.607875823E0,9.270000458E-1,1.053000093E0,9.970050812E0,1.006826954E1
1.610341284E0,8.980500698E-1,1.078950047E0,9.888000488E0,9.987150784E0
1.612806823E0,8.910000324E-1,1.105949998E0,9.871950150E0,9.973585424E0
1.615272438E0,9.049500227E-1,1.113000035E0,9.922050476E0,1.002520769E1
1.617738217E0,9.580500722E-1,1.069950104E0,9.910050392E0,1.001357838E1
1.620203525E0,8.860500455E-1,1.086000085E0,9.900000572E0,9.998724529E0
1.622669063E0,8.980500698E-1,1.113000035E0,9.892950058E0,9.995785305E0
1.625134525E0,8.929500580E-1,1.090950012E0,9.919050217E0,1.001873689E1
1.627600064E0,9.270000458E-1,1.110000014E0,9.892950058E0,9.998094317E0
1.630065385E0,9.340500236E-1,1.117050052E0,9.940950394E0,1.004702667E1
1.632530924E0,9.240000248E-1,1.084050059E0,9.868950844E0,9.971215138E0
1.634996462E0,9.079500437E-1,1.086000085E0,9.867000580E0,9.968022367E0
1.637462001E0,9.559500217E-1,1.084050059E0,9.907050133E0,1.001192525E1
1.639927539E0,9.270000458E-1,1.084050059E0,9.934050560E0,1.003592817E1
1.642393294E0,9.100500345E-1,1.057950020E0,9.940950394E0,1.003842338E1
1.644858602E0,9.360000491E-1,1.120050073E0,9.955050468E0,1.006149284E1
1.647324448E0,9.319500327E-1,1.110000014E0,9.924000740E0,1.002927822E1
1.649789987E0,8.929500580E-1,1.098000050E0,9.912000656E0,1.001252820E1
1.652255448E0,9.240000248E-1,1.084050059E0,9.960000038E0,1.006133894E1
1.654721059E0,9.510000348E-1,1.149000049E0,9.919050217E0,1.003056127E1
1.657186520E0,9.010500312E-1,1.114950061E0,9.910050392E0,1.001319647E1
1.659652059E0,9.340500236E-1,1.101000071E0,9.912000656E0,1.001660659E1
1.662117366E0,9.360000491E-1,1.069950104E0,9.936000824E0,1.003718096E1
1.664582828E0,8.839500546E-1,1.096050024E0,9.919050217E0,1.001849542E1
1.667048150E0,8.910000324E-1,1.093950033E0,9.912000656E0,1.001191114E1
1.669513611E0,9.390000701E-1,1.029000044E0,9.886050224E0,9.983714302E0
1.671979150E0,9.559500217E-1,1.072050095E0,9.892950058E0,9.996679084E0
1.674444688E0,8.569500446E-1,1.108050108E0,9.931050301E0,1.002935185E1
1.676910226E0,8.620500565E-1,1.096050024E0,9.904950142E0,1.000262432E1
1.679375857E0,9.240000248E-1,1.069950104E0,9.859950066E0,9.960782327E0
1.681841318E0,9.169500470E-1,1.110000014E0,9.916950226E0,1.002091808E1
1.684306626E0,8.839500546E-1,1.096050024E0,9.880950928E0,9.980775751E0
1.686772165E0,9.220500588E-1,1.086000085E0,9.883950233E0,9.986092565E0
1.689237626E0,9.220500588E-1,1.098000050E0,9.943050385E0,1.004589625E1
1.691702948E0,9.340500236E-1,1.102950096E0,9.927000046E0,1.003166378E1
1.694168179E0,9.289500713E-1,1.098000050E0,9.940950394E0,1.004445355E1
1.696633717E0,9.439500570E-1,1.081950068E0,9.903000832E0,1.000655201E1
1.699099486E0,8.860500455E-1,1.029000044E0,9.900000572E0,9.992694186E0
1.701565025E0,9.360000491E-1,1.096050024E0,9.904950142E0,1.000926866E1
1.704030327E0,9.360000491E-1,1.077000022E0,9.943050385E0,1.004491295E1
1.706495789E0,9.630000591E-1,1.096050024E0,9.904950142E0,1.001182961E1
1.708961020E0,9.240000248E-1,1.089000106E0,9.958050728E0,1.005994392E1
1.711426327E0,9.010500312E-1,1.113000035E0,9.952950478E0,1.005544049E1
1.713891789E0,9.240000248E-1,1.084050059E0,9.912000656E0,1.001382532E1
1.716357342E0,8.740500212E-1,1.066950083E0,9.912000656E0,1.000750233E1
1.718822342E0,9.049500227E-1,1.078950047E0,9.970050812E0,1.006901092E1
1.721287573E0,9.220500588E-1,1.090950012E0,9.919050217E0,1.002137243E1
1.723753035E0,9.150000215E-1,1.105949998E0,9.895050049E0,9.998618200E0
1.726218266E0,9.580500722E-1,1.069950104E0,9.888000488E0,9.991756944E0
1.728683573E0,9.049500227E-1,1.078950047E0,9.900000572E0,9.999653948E0
1.731149112E0,9.150000215E-1,1.129050016E0,9.915000916E0,1.002093918E1
1.733614343E0,9.150000215E-1,1.077000022E0,9.931050301E0,1.003109736E1
1.736079804E0,8.890500665E-1,1.084050059E0,9.904950142E0,1.000367992E1
1.738545035E0,9.340500236E-1,1.149000049E0,9.910050392E0,1.002006733E1
1.741010592E0,9.120000601E-1,1.114950061E0,9.910050392E0,1.001418776E1
1.743475823E0,9.390000701E-1,1.096050024E0,9.915000916E0,1.001949549E1
1.745941362E0,9.240000248E-1,1.093950033E0,9.900000572E0,1.000302524E1
1.748406900E0,9.150000215E-1,1.101000071E0,9.892950058E0,9.995993550E0
1.750871900E0,9.220500588E-1,1.098000050E0,9.879000664E0,9.982506425E0
1.753337362E0,9.150000215E-1,1.117050052E0,9.940950394E0,1.004527354E1
1.755802669E0,9.240000248E-1,1.114950061E0,1.000995064E1,1.011414858E1
1.758267900E0,9.199500680E-1,1.108050108E0,9.915000916E0,1.001904817E1
1.760733362E0,9.120000601E-1,1.134000063E0,9.910050392E0,1.001632662E1
1.763198592E0,8.719500303E-1,1.102950096E0,9.903000832E0,1.000231080E1
1.765663813E0,9.010500312E-1,1.057950020E0,9.943050385E0,1.003969125E1
1.768129044E0,9.079500437E-1,1.089000106E0,9.927000046E0,1.002774274E1
1.770594352E0,9.270000458E-1,1.102950096E0,9.868950844E0,9.973566000E0
1.773059582E0,9.289500713E-1,1.077000022E0,9.940950394E0,1.004217964E1
1.775525044E0,9.220500588E-1,1.066950083E0,9.955050468E0,1.005443129E1
1.777990275E0,9.220500588E-1,1.072050095E0,9.892950058E0,9.993494312E0
1.780455813E0,9.390000701E-1,1.105949998E0,9.895050049E0,1.000084306E1
1.782921352E0,9.220500588E-1,1.078950047E0,9.960000038E0,1.006061182E1
1.785386659E0,8.959500194E-1,1.057950020E0,9.927000046E0,1.002333850E1
1.787852198E0,9.360000491E-1,1.113000035E0,9.904950142E0,1.001113892E1
1.790317736E0,9.460500479E-1,1.113000035E0,9.924000740E0,1.003093069E1
1.792783506E0,9.220500588E-1,1.050000072E0,9.895050049E0,9.993232306E0
1.795249352E0,9.120000601E-1,1.065000057E0,9.958050728E0,1.005627881E1
1.797715275E0,9.169500470E-1,1.113000035E0,9.900000572E0,1.000447789E1
1.800180736E0,9.360000491E-1,1.062000036E0,9.888000488E0,9.988818440E0
1.802645722E0,9.150000215E-1,1.048050046E0,9.900000572E0,9.997281894E0
1.805111261E0,9.340500236E-1,1.110000014E0,9.910050392E0,1.001567014E1
1.807576799E0,9.100500345E-1,1.105949998E0,9.900000572E0,1.000306592E1
1.810042645E0,8.929500580E-1,1.129050016E0,9.946050644E0,1.004967846E1
1.812508184E0,9.439500570E-1,1.149000049E0,9.907050133E0,1.001802801E1
1.814974030E0,9.199500680E-1,1.086000085E0,9.904950142E0,1.000668485E1
1.817439799E0,9.319500327E-1,1.084050059E0,9.868950844E0,9.971954981E0
1.819905415E0,9.630000591E-1,1.089000106E0,9.895050049E0,1.000126521E1
1.822371184E0,9.630000591E-1,1.096050024E0,9.939000130E0,1.004551733E1
1.824836722E0,9.510000348E-1,1.084050059E0,9.963000298E0,1.006682376E1
1.827302266E0,9.480000734E-1,1.122000098E0,9.946050644E0,1.005393017E1
1.829767881E0,9.600000381E-1,1.098000050E0,9.931050301E0,1.003757761E1
1.832233112E0,9.340500236E-1,1.062000036E0,9.931050301E0,1.003125384E1
1.834698343E0,9.289500713E-1,1.102950096E0,9.934050560E0,1.003816755E1
1.837163804E0,9.559500217E-1,1.129050016E0,9.862050056E0,9.972393178E0
1.839629126E0,9.340500236E-1,1.066950083E0,9.883950233E0,9.985154187E0
1.842094588E0,9.030000567E-1,1.125000000E0,9.946050644E0,1.005012226E1
1.844559895E0,8.740500212E-1,1.105949998E0,9.951000214E0,1.005034796E1
1.847025434E0,9.199500680E-1,1.132050037E0,9.892950058E0,9.999915313E0
1.849491203E0,9.460500479E-1,1.077000022E0,9.955050468E0,1.005773183E1
1.851956516E0,9.049500227E-1,1.081950068E0,9.951000214E0,1.005047042E1
1.854421977E0,8.839500546E-1,1.066950083E0,9.919050217E0,1.001535358E1
1.856887285E0,8.860500455E-1,1.074000001E0,9.912000656E0,1.000931155E1
1.859352823E0,9.199500680E-1,1.101000071E0,9.916950226E0,1.002020015E1
1.861818593E0,9.460500479E-1,1.102950096E0,9.910050392E0,1.001601759E1
1.864284073E0,9.120000601E-1,1.078950047E0,9.922050476E0,1.002212368E1
1.866749688E0,9.240000248E-1,1.090950012E0,9.883950233E0,9.986812314E0
1.869215227E0,9.010500312E-1,1.102950096E0,9.898050308E0,9.999989499E0
1.871680688E0,9.439500570E-1,1.108050108E0,9.895050049E0,1.000154149E1
1.874146227E0,9.360000491E-1,1.072050095E0,9.910050392E0,1.001171745E1
1.876611554E0,9.220500588E-1,1.096050024E0,9.943050385E0,1.004568330E1
1.879077323E0,8.809500337E-1,1.132050037E0,9.931050301E0,1.003411034E1
1.881542631E0,8.910000324E-1,1.108050108E0,9.951000214E0,1.005206752E1
1.884008400E0,9.360000491E-1,1.089000106E0,9.927000046E0,1.003032139E1
1.886473938E0,9.010500312E-1,1.093950033E0,9.928950310E0,1.002958983E1
1.888939482E0,9.199500680E-1,1.062000036E0,9.912000656E0,1.001108931E1
1.891404789E0,9.010500312E-1,1.084050059E0,9.919050217E0,1.001871314E1
1.893870328E0,8.929500580E-1,1.072050095E0,1.000095081E1,1.009780513E1
1.896336405E0,9.439500570E-1,1.093950033E0,9.958050728E0,1.006233286E1
1.898802251E0,9.049500227E-1,1.141050100E0,9.903000832E0,1.000951324E1
1.901267544E0,8.719500303E-1,1.062000036E0,9.856950760E0,9.952267039E0
1.903733313E0,9.030000567E-1,1.065000057E0,9.886050224E0,9.984168631E0
1.906198851E0,9.199500680E-1,1.120050073E0,9.900000572E0,1.000554005E1
1.908664159E0,9.120000601E-1,1.114950061E0,9.903000832E0,1.000721156E1
1.911129928E0,9.289500713E-1,1.105949998E0,9.895050049E0,9.999904455E0
1.913595453E0,9.100500345E-1,1.084050059E0,9.886050224E0,9.986858597E0
1.916060991E0,9.289500713E-1,1.066950083E0,9.939000130E0,1.003917598E1
1.918526299E0,9.460500479E-1,1.090950012E0,9.919050217E0,1.002360912E1
1.920991837E0,8.910000324E-1,1.084050059E0,9.951000214E0,1.004945028E1
1.923457299E0,9.049500227E-1,1.096050024E0,9.895050049E0,9.996613210E0
1.925922626E0,9.030000567E-1,1.089000106E0,9.891000748E0,9.991657827E0
1.928388164E0,9.529500604E-1,1.086000085E0,9.915000916E0,1.001971822E1
1.930853703E0,9.649500251E-1,1.101000071E0,9.915000916E0,1.002250332E1
1.933319241E0,9.289500713E-1,1.132050037E0,9.900000572E0,1.000772186E1
1.935784703E0,8.890500665E-1,1.078950047E0,9.903000832E0,1.000119836E1
1.938249933E0,9.360000491E-1,1.053000093E0,9.960000038E0,1.005915036E1
1.940715241E0,9.580500722E-1,1.093950033E0,9.972000122E0,1.007746858E1
1.943180780E0,9.169500470E-1,1.090950012E0,9.922050476E0,1.002387425E1
1.945646241E0,9.100500345E-1,1.108050108E0,9.919050217E0,1.002215163E1
1.948111857E0,9.649500251E-1,1.138950109E0,9.886050224E0,9.998116070E0
1.950577318E0,9.460500479E-1,1.144050002E0,9.886050224E0,9.996892024E0
1.953042857E0,9.120000601E-1,1.074000001E0,9.859950066E0,9.960112219E0
1.955508395E0,8.980500698E-1,1.108050108E0,9.871950150E0,9.974450798E0
1.957973395E0,8.959500194E-1,1.090950012E0,9.910050392E0,1.001009476E1
1.960438857E0,9.030000567E-1,1.093950033E0,9.928950310E0,1.002976520E1
1.962904164E0,9.289500713E-1,1.117050052E0,9.922050476E0,1.002785295E1
1.965369703E0,9.700500369E-1,1.108050108E0,9.960000038E0,1.006828550E1
1.967835164E0,9.220500588E-1,1.089000106E0,9.951000214E0,1.005278582E1
1.970300395E0,9.079500437E-1,1.110000014E0,9.912000656E0,1.001519996E1
1.972765933E0,9.270000458E-1,1.077000022E0,9.903000832E0,1.000443320E1
1.975231246E0,9.319500327E-1,1.050000072E0,9.903000832E0,1.000202262E1
1.977696785E0,8.959500194E-1,1.054949999E0,9.895050049E0,9.991379355E0
1.980162323E0,9.079500437E-1,1.054949999E0,9.910050392E0,1.000731690E1
1.982627862E0,8.980500698E-1,1.030950069E0,9.943050385E0,1.003661312E1
1.985093323E0,9.460500479E-1,1.098000050E0,9.939000130E0,1.004411959E1
1.987558534E0,9.439500570E-1,1.108050108E0,9.936000824E0,1.004205801E1
1.990023765E0,8.790000677E-1,1.114950061E0,9.928950310E0,1.002994561E1
1.992489303E0,9.220500588E-1,1.090950012E0,9.919050217E0,1.002137243E1
1.994954534E0,9.319500327E-1,1.089000106E0,9.891000748E0,9.994315779E0
1.997419842E0,9.079500437E-1,1.096050024E0,9.915000916E0,1.001663327E1
1.999885384E0,8.910000324E-1,1.101000071E0,9.898050308E0,9.998874042E0
2.002350846E0,9.169500470E-1,1.117050052E0,9.852000237E0,9.957434753E0
2.004816153E0,9.120000601E-1,1.102950096E0,9.892950058E0,9.995934367E0
2.007281692E0,8.959500194E-1,1.098000050E0,9.892950058E0,9.993937732E0
2.009747230E0,9.340500236E-1,1.096050024E0,9.898050308E0,1.000225850E1
2.012212972E0,9.390000701E-1,1.069950104E0,9.915000916E0,1.001667397E1
2.014678587E0,9.270000458E-1,1.050000072E0,9.915000916E0,1.001344458E1
2.017144125E0,9.360000491E-1,1.086000085E0,9.912000656E0,1.001515099E1
2.019609587E0,9.150000215E-1,1.134000063E0,9.883950233E0,9.990778418E0
2.022074895E0,9.150000215E-1,1.069950104E0,9.880950928E0,9.980741931E0
2.024540322E0,9.289500713E-1,1.062000036E0,9.898050308E0,9.998109432E0
2.027005630E0,8.929500580E-1,1.062000036E0,9.916950226E0,1.001354611E1
2.029471168E0,9.240000248E-1,1.108050108E0,9.940950394E0,1.004510059E1
2.031936707E0,9.049500227E-1,1.126950026E0,9.891000748E0,9.996041551E0
2.034402168E0,8.650500178E-1,1.122000098E0,9.924000740E0,1.002461902E1
2.036867490E0,8.959500194E-1,1.122000098E0,9.919050217E0,1.002243323E1
2.039332952E0,9.030000567E-1,1.101000071E0,9.952950478E0,1.005429428E1
2.041798490E0,8.770500422E-1,1.060050011E0,9.886050224E0,9.981328160E0
2.044264029E0,8.959500194E-1,1.098000050E0,9.904950142E0,1.000581670E1
2.046729259E0,9.199500680E-1,1.089000106E0,9.859950066E0,9.962471814E0
2.049194567E0,9.079500437E-1,1.110000014E0,9.946050644E0,1.004890027E1
2.051659721E0,9.079500437E-1,1.078950047E0,9.967050552E0,1.006631031E1
2.054124952E0,8.890500665E-1,1.078950047E0,9.876000404E0,9.974463756E0
2.056590182E0,8.860500455E-1,1.093950033E0,9.883950233E0,9.983700896E0
2.059055182E0,9.510000348E-1,1.041000009E0,9.922050476E0,1.002173477E1
2.061520697E0,9.529500604E-1,1.066950083E0,9.964950562E0,1.006711160E1
2.063986235E0,9.049500227E-1,1.114950061E0,9.936000824E0,1.003923107E1
2.066451466E0,8.980500698E-1,1.137000084E0,9.883950233E0,9.989581339E0
2.068916697E0,9.100500345E-1,1.134000063E0,9.898050308E0,1.000427644E1
2.071381928E0,9.120000601E-1,1.138950109E0,9.931050301E0,1.003766465E1
2.073846895E0,9.220500588E-1,1.096050024E0,9.904950142E0,1.000797378E1
2.076312126E0,9.700500369E-1,1.053000093E0,9.871950150E0,9.975229623E0
2.078777587E0,9.510000348E-1,1.101000071E0,9.879000664E0,9.985552380E0
2.081242818E0,8.860500455E-1,1.069950104E0,9.912000656E0,1.000887780E1
2.083707818E0,9.100500345E-1,1.074000001E0,9.867000580E0,9.966913640E0
2.086173274E0,9.580500722E-1,1.098000050E0,9.903000832E0,1.000963983E1
2.088638582E0,9.150000215E-1,1.105949998E0,9.847950935E0,9.952009248E0
2.091103813E0,8.980500698E-1,1.090950012E0,9.871950150E0,9.972565648E0
2.093568967E0,9.079500437E-1,1.050000072E0,9.922050476E0,1.001868051E1
2.096034274E0,9.030000567E-1,1.078950047E0,9.960000038E0,1.005888379E1
2.098499765E0,9.480000734E-1,1.053000093E0,9.915000916E0,1.001572546E1
2.100964996E0,9.340500236E-1,1.077000022E0,9.903000832E0,1.000508890E1
2.103430303E0,8.740500212E-1,1.086000085E0,9.927000046E0,1.002440470E1
2.105895765E0,9.079500437E-1,1.113000035E0,9.955050468E0,1.005813960E1
2.108361073E0,9.480000734E-1,1.084050059E0,9.951000214E0,1.005466429E1
2.110826538E0,9.529500604E-1,1.117050052E0,9.948000908E0,1.005577629E1
2.113292154E0,9.100500345E-1,1.072050095E0,9.934050560E0,1.003308741E1
2.115757692E0,9.100500345E-1,1.072050095E0,9.939000130E0,1.003798815E1
2.118223231E0,9.169500470E-1,1.102950096E0,9.891000748E0,9.994458069E0
2.120688769E0,9.100500345E-1,1.089000106E0,9.900000572E0,1.000120611E1
2.123153991E0,9.240000248E-1,1.062000036E0,9.895050049E0,9.994680365E0
2.125619529E0,9.199500680E-1,1.117050052E0,9.883950233E0,9.989323359E0
2.128085068E0,9.559500217E-1,1.072050095E0,9.910050392E0,1.001360228E1
2.130550837E0,9.340500236E-1,1.060050011E0,9.903000832E0,1.000327851E1
2.133016145E0,9.199500680E-1,1.042950034E0,9.915000916E0,1.001205753E1
2.135481678E0,9.199500680E-1,1.089000106E0,9.888000488E0,9.990234382E0
2.137947524E0,9.150000215E-1,1.069950104E0,9.904950142E0,1.000450177E1
2.140413601E0,8.980500698E-1,1.101000071E0,9.903000832E0,1.000440506E1
2.142879447E0,9.010500312E-1,1.089000106E0,9.880950928E0,9.981533130E0
2.145345063E0,9.700500369E-1,1.113000035E0,9.855000496E0,9.964978722E0
2.147810837E0,9.319500327E-1,1.086000085E0,9.886050224E0,9.989089853E0
2.150276375E0,9.150000215E-1,1.077000022E0,9.940950394E0,1.004089881E1
2.152741914E0,9.100500345E-1,1.072050095E0,9.931050301E0,1.003011678E1
2.155207452E0,8.719500303E-1,1.086000085E0,9.924000740E0,1.002125160E1
2.157672991E0,8.890500665E-1,1.089000106E0,9.960000038E0,1.005872417E1
2.160138543E0,9.409500360E-1,1.108050108E0,9.963000298E0,1.006849229E1
2.162604159E0,9.510000348E-1,1.090950012E0,9.924000740E0,1.002897620E1
2.165069697E0,9.580500722E-1,1.101000071E0,9.879000664E0,9.986226275E0
2.167535236E0,9.220500588E-1,1.105949998E0,9.862050056E0,9.966610910E0
2.170000697E0,9.240000248E-1,1.096050024E0,9.910050392E0,1.001320131E1
2.172466000E0,9.319500327E-1,1.108050108E0,9.943050385E0,1.004791306E1
2.174931461E0,9.390000701E-1,1.065000057E0,9.958050728E0,1.005876337E1
2.177396769E0,9.100500345E-1,1.108050108E0,9.943050385E0,1.004590549E1
2.179862538E0,9.030000567E-1,1.098000050E0,9.903000832E0,1.000452091E1
2.182328154E0,9.439500570E-1,1.102950096E0,9.867000580E0,9.973226212E0
2.184793635E0,8.910000324E-1,1.105949998E0,9.898050308E0,9.999420301E0
2.187258943E0,9.169500470E-1,1.129050016E0,9.924000740E0,1.003002203E1
2.189724405E0,9.169500470E-1,1.090950012E0,9.859950066E0,9.962408575E0
2.192190020E0,9.150000215E-1,1.050000072E0,9.936000824E0,1.003313698E1
2.194655481E0,9.319500327E-1,1.066950083E0,9.888000488E0,9.988967264E0
2.197121030E0,9.289500713E-1,1.060050011E0,9.919050217E0,1.001869310E1
2.199586568E0,8.910000324E-1,1.074000001E0,9.948000908E0,1.004540089E1
2.202051799E0,9.079500437E-1,1.069950104E0,9.940950394E0,1.003950503E1
2.204517107E0,8.740500212E-1,1.053000093E0,9.934050560E0,1.002786783E1
2.206982568E0,9.270000458E-1,1.108050108E0,9.927000046E0,1.003157186E1
2.209447890E0,9.049500227E-1,1.090950012E0,9.910050392E0,1.001090432E1
2.211913659E0,8.890500665E-1,1.089000106E0,9.874050140E0,9.973625090E0
2.214379275E0,8.740500212E-1,1.089000106E0,9.895050049E0,9.993092621E0
2.216844813E0,8.929500580E-1,1.101000071E0,9.919050217E0,1.001983623E1
2.219310582E0,9.150000215E-1,1.114950061E0,9.903000832E0,1.000748541E1
2.221775914E0,9.049500227E-1,1.122000098E0,9.952950478E0,1.005679084E1
2.224241683E0,8.689500690E-1,1.078950047E0,9.936000824E0,1.003211442E1
2.226707222E0,9.319500327E-1,1.074000001E0,9.912000656E0,1.001347911E1
2.229172837E0,9.120000601E-1,1.122000098E0,9.948000908E0,1.005252955E1
2.231638606E0,9.240000248E-1,1.090950012E0,9.880950928E0,9.983843910E0
2.234104117E0,9.270000458E-1,1.108050108E0,9.924000740E0,1.002860383E1
2.236569732E0,9.049500227E-1,1.117050052E0,9.939000130E0,1.004243292E1
2.239035502E0,9.079500437E-1,1.122000098E0,9.891000748E0,9.995756764E0
2.241501040E0,8.860500455E-1,1.074000001E0,9.904950142E0,1.000232963E1
2.243966655E0,8.809500337E-1,1.084050059E0,9.960000038E0,1.005747673E1
2.246432194E0,8.929500580E-1,1.069950104E0,9.916950226E0,1.001439238E1
2.248897963E0,8.890500665E-1,1.096050024E0,9.910050392E0,1.001003669E1
2.251363271E0,9.169500470E-1,1.101000071E0,9.867000580E0,9.970491411E0
2.253828732E0,9.010500312E-1,1.066950083E0,9.892950058E0,9.991032704E0
2.256294271E0,9.199500680E-1,1.102950096E0,9.931050301E0,1.003436929E1
2.258759794E0,9.460500479E-1,1.137000084E0,9.874050140E0,9.984219852E0
2.261225410E0,9.220500588E-1,1.122000098E0,9.892950058E0,9.998976017E0
2.263690948E0,9.319500327E-1,1.077000022E0,9.910050392E0,1.001187089E1
2.266156410E0,9.220500588E-1,1.141050100E0,9.910050392E0,1.001804724E1
2.268621948E0,9.409500360E-1,1.101000071E0,9.928950310E0,1.003402424E1
2.271087275E0,9.100500345E-1,1.081950068E0,9.988950729E0,1.008850552E1
2.273552736E0,9.150000215E-1,1.081950068E0,9.900000572E0,1.000089258E1
2.276017967E0,9.409500360E-1,1.113000035E0,9.910050392E0,1.001664888E1
2.278483583E0,9.390000701E-1,1.077000022E0,9.888000488E0,9.990705873E0
2.280949429E0,9.439500570E-1,1.066950083E0,9.948000908E0,1.004948487E1
2.283414885E0,9.240000248E-1,1.078950047E0,9.970050812E0,1.007074091E1
2.285880731E0,9.220500588E-1,1.084050059E0,9.931050301E0,1.003250223E1
2.288346347E0,9.010500312E-1,1.090950012E0,9.907050133E0,1.000758240E1
2.290812193E0,9.120000601E-1,1.060050011E0,9.927000046E0,1.002500773E1
2.293277962E0,9.319500327E-1,1.078950047E0,9.904950142E0,1.000703260E1
2.295743593E0,9.010500312E-1,1.137000084E0,9.880950928E0,9.986883978E0
2.298209439E0,9.529500604E-1,1.113000035E0,9.883950233E0,9.991964527E0
2.300674900E0,9.240000248E-1,1.134000063E0,9.843000412E0,9.951099904E0
2.303140439E0,9.270000458E-1,1.062000036E0,9.892950058E0,9.992879165E0
2.305605977E0,9.169500470E-1,1.072050095E0,9.948000908E0,1.004752760E1
2.308071266E0,9.079500437E-1,1.069950104E0,9.951000214E0,1.004945629E1
2.310537035E0,8.890500665E-1,1.078950047E0,9.915000916E0,1.001308076E1
2.313002651E0,9.030000567E-1,1.098000050E0,9.922050476E0,1.002337762E1
2.315468189E0,9.010500312E-1,1.081950068E0,9.960000038E0,1.005903116E1
2.317933958E0,9.240000248E-1,1.141050100E0,9.963000298E0,1.007060804E1
2.320399569E0,9.480000734E-1,1.149000049E0,9.880950928E0,9.992602088E0
2.322865030E0,8.929500580E-1,1.089000106E0,9.874050140E0,9.973973492E0
2.325330338E0,9.270000458E-1,1.105949998E0,9.928950310E0,1.003327009E1
2.327796107E0,9.240000248E-1,1.096050024E0,9.924000740E0,1.002700815E1
2.330261646E0,9.270000458E-1,1.072050095E0,9.951000214E0,1.005141909E1
2.332727169E0,9.220500588E-1,1.093950033E0,9.951000214E0,1.005332324E1
2.335192708E0,9.580500722E-1,1.060050011E0,9.919050217E0,1.002143319E1
2.337658246E0,9.270000458E-1,1.077000022E0,9.903000832E0,1.000443320E1
2.340123246E0,8.599500656E-1,1.120050073E0,9.912000656E0,1.001208187E1
2.342588708E0,8.670000434E-1,1.117050052E0,9.915000916E0,1.001532491E1
2.345054025E0,9.220500588E-1,1.101000071E0,9.928950310E0,1.003226952E1
2.347519795E0,9.120000601E-1,1.041000009E0,9.960000038E0,1.005569619E1
2.349985333E0,9.460500479E-1,1.062000036E0,9.912000656E0,1.001352145E1
2.352450871E0,9.480000734E-1,1.089000106E0,9.876000404E0,9.980982384E0
2.354916410E0,9.100500345E-1,1.117050052E0,9.904950142E0,1.000919723E1
2.357382030E0,9.049500227E-1,1.098000050E0,9.883950233E0,9.985840519E0
2.359847800E0,9.220500588E-1,1.077000022E0,9.922050476E0,1.002283348E1
2.362313338E0,9.199500680E-1,1.084050059E0,9.895050049E0,9.996673853E0
2.364778953E0,9.169500470E-1,1.086000085E0,9.871950150E0,9.973745201E0
2.367244415E0,9.120000601E-1,1.105949998E0,9.867000580E0,9.970585236E0
2.369709967E0,9.319500327E-1,1.102950096E0,9.903000832E0,1.000771978E1
2.372175275E0,9.169500470E-1,1.050000072E0,9.934050560E0,1.003138366E1
2.374640814E0,8.929500580E-1,1.078950047E0,9.898050308E0,9.996644083E0
2.377106275E0,9.030000567E-1,1.101000071E0,9.844950676E0,9.947394838E0
2.379571814E0,9.319500327E-1,1.108050108E0,9.904950142E0,1.001021195E1
2.382037024E0,9.120000601E-1,1.072050095E0,9.915000916E0,1.001440356E1
2.384502255E0,9.240000248E-1,1.077000022E0,9.891000748E0,9.992277062E0
2.386967794E0,9.150000215E-1,1.069950104E0,9.900000572E0,9.999601472E0
2.389433101E0,9.030000567E-1,1.093950033E0,9.862050056E0,9.963541895E0
2.391898332E0,9.600000381E-1,1.060050011E0,9.936000824E0,1.003839721E1
2.394363534E0,9.559500217E-1,1.078950047E0,9.960000038E0,1.006377536E1
2.396829072E0,9.240000248E-1,1.122000098E0,9.948000908E0,1.005362533E1
2.399294611E0,9.460500479E-1,1.105949998E0,9.910050392E0,1.001634838E1
2.401760072E0,9.679500461E-1,1.093950033E0,9.963000298E0,1.006950986E1
2.404225303E0,9.390000701E-1,1.114950061E0,9.952950478E0,1.005912809E1
2.406690621E0,8.719500303E-1,1.060050011E0,9.903000832E0,9.997671146E0
2.409156082E0,9.079500437E-1,1.081950068E0,9.922050476E0,1.002207937E1
2.411621698E0,9.480000734E-1,1.096050024E0,9.931050301E0,1.003622388E1
2.414087159E0,9.270000458E-1,1.096050024E0,9.922050476E0,1.002535488E1
2.416552698E0,9.199500680E-1,1.069950104E0,9.934050560E0,1.003376609E1
2.419017919E0,9.010500312E-1,1.089000106E0,9.895050049E0,9.995490376E0
2.421482919E0,9.340500236E-1,1.117050052E0,9.871950150E0,9.978759944E0
2.423948380E0,9.049500227E-1,1.050000072E0,9.867000580E0,9.963891566E0
2.426413688E0,9.100500345E-1,1.090950012E0,9.922050476E0,1.002324541E1
2.428879149E0,9.270000458E-1,1.113000035E0,9.888000488E0,9.993530498E0
2.431344712E0,8.959500194E-1,1.069950104E0,9.862050056E0,9.960298739E0
2.433810020E0,9.010500312E-1,1.069950104E0,9.924000740E0,1.002209933E1
2.436275789E0,9.240000248E-1,1.101000071E0,9.940950394E0,1.004432536E1
2.438741096E0,8.890500665E-1,1.096050024E0,9.903000832E0,1.000305759E1
2.441206558E0,8.839500546E-1,1.048050046E0,9.876000404E0,9.970715149E0
2.443672182E0,9.240000248E-1,1.125000000E0,9.867000580E0,9.973820807E0
2.446137721E0,9.169500470E-1,1.110000014E0,9.943050385E0,1.004674815E1
2.448603567E0,9.150000215E-1,1.069950104E0,9.985950470E0,1.008470253E1
2.451069105E0,9.010500312E-1,1.102950096E0,9.922050476E0,1.002374559E1
2.453534567E0,9.100500345E-1,1.098000050E0,9.927000046E0,1.002891445E1
2.456000129E0,9.439500570E-1,1.096050024E0,9.927000046E0,1.003183419E1
2.458465437E0,9.120000601E-1,1.078950047E0,9.979050636E0,1.007855788E1
2.460931206E0,9.079500437E-1,1.077000022E0,9.919050217E0,1.001857572E1
2.463396745E0,9.360000491E-1,1.098000050E0,9.895050049E0,9.999685779E0
2.465861976E0,9.360000491E-1,1.101000071E0,9.879000664E0,9.984134983E0
2.468327293E0,9.720000625E-1,1.077000022E0,9.871950150E0,9.977981405E0
2.470792524E0,9.240000248E-1,1.117050052E0,9.898050308E0,1.000364817E1
2.473257755E0,9.390000701E-1,1.074000001E0,9.915000916E0,1.001710738E1
2.475723216E0,9.510000348E-1,1.089000106E0,9.931050301E0,1.003574025E1
2.478188524E0,8.910000324E-1,1.101000071E0,9.940950394E0,1.004134338E1
2.480653981E0,8.650500178E-1,1.066950083E0,9.951000214E0,1.004535212E1
2.483118981E0,8.890500665E-1,1.030950069E0,9.963000298E0,1.005557771E1
2.485584211E0,9.030000567E-1,1.093950033E0,9.922050476E0,1.002293477E1
2.488049365E0,9.120000601E-1,1.078950047E0,9.886050224E0,9.986484184E0
2.490514365E0,8.770500422E-1,1.110000014E0,9.900000572E0,1.000056639E1
2.492979794E0,9.220500588E-1,1.141050100E0,9.934050560E0,1.004178929E1
2.495444794E0,9.559500217E-1,1.081950068E0,9.922050476E0,1.002654188E1
2.497909948E0,9.319500327E-1,1.101000071E0,9.867000580E0,9.971882092E0
2.500374948E0,9.580500722E-1,1.120050073E0,9.892950058E0,1.000214142E1
2.502840179E0,9.220500588E-1,1.110000014E0,9.912000656E0,1.001648807E1
2.505305664E0,8.790000677E-1,1.093950033E0,9.934050560E0,1.003268301E1
2.507770895E0,9.049500227E-1,1.125000000E0,9.910050392E0,1.001467215E1
2.510236203E0,9.360000491E-1,1.117050052E0,9.852000237E0,9.959207075E0
2.512701664E0,9.319500327E-1,1.093950033E0,9.964950562E0,1.006804337E1
2.515166664E0,9.240000248E-1,1.084050059E0,9.970050812E0,1.007128859E1
2.517631875E0,8.959500194E-1,1.101000071E0,9.952950478E0,1.005366355E1
2.520096798E0,8.890500665E-1,1.096050024E0,9.924000740E0,1.002384788E1
2.522562029E0,9.480000734E-1,1.062000036E0,9.927000046E0,1.002855314E1
2.525027567E0,9.679500461E-1,1.041000009E0,9.964950562E0,1.006582575E1
2.527493029E0,9.169500470E-1,1.101000071E0,9.916950226E0,1.001992517E1
2.529958355E0,9.100500345E-1,1.093950033E0,9.904950142E0,1.000664554E1
2.532423817E0,9.270000458E-1,1.077000022E0,9.928950310E0,1.003012026E1
2.534889125E0,8.910000324E-1,1.072050095E0,9.982050896E0,1.007891425E1
2.537354586E0,9.319500327E-1,1.078950047E0,9.946050644E0,1.004771554E1
2.539819817E0,9.460500479E-1,1.120050073E0,9.922050476E0,1.002978606E1
2.542285140E0,9.120000601E-1,1.134000063E0,9.912000656E0,1.001825620E1
2.544750601E0,9.319500327E-1,1.102950096E0,9.931050301E0,1.003547656E1
2.547215909E0,9.510000348E-1,1.084050059E0,9.928950310E0,1.003312613E1
2.549681063E0,9.220500588E-1,1.074000001E0,9.912000656E0,1.001256258E1
2.552146294E0,9.169500470E-1,1.086000085E0,9.900000572E0,1.000151013E1
2.554611533E0,8.980500698E-1,1.113000035E0,9.934050560E0,1.003646469E1
2.557076841E0,9.100500345E-1,1.101000071E0,9.922050476E0,1.002434426E1
2.559541995E0,9.480000734E-1,1.042950034E0,9.924000740E0,1.002358417E1
2.562007303E0,9.460500479E-1,1.105949998E0,9.943050385E0,1.004899931E1
2.564472456E0,9.030000567E-1,1.117050052E0,9.919050217E0,1.002251301E1
2.566937659E0,9.100500345E-1,1.105949998E0,9.895050049E0,9.998166429E0
2.569402967E0,9.120000601E-1,1.110000014E0,9.912000656E0,1.001556794E1
2.571868121E0,9.240000248E-1,1.125000000E0,9.919050217E0,1.002531587E1
2.574333428E0,9.390000701E-1,1.129050016E0,9.927000046E0,1.003502890E1
2.576798659E0,8.809500337E-1,1.098000050E0,9.900000572E0,9.999584411E0
2.579264116E0,8.980500698E-1,1.117050052E0,9.943050385E0,1.004582230E1
2.581729347E0,9.199500680E-1,1.114950061E0,9.888000488E0,9.993096388E0
2.584194577E0,9.529500604E-1,1.126950026E0,9.958050728E0,1.006682197E1
2.586659577E0,8.980500698E-1,1.066950083E0,9.922050476E0,1.001957894E1
2.589125039E0,9.360000491E-1,1.060050011E0,9.927000046E0,1.002721956E1
2.591590361E0,9.340500236E-1,1.090950012E0,9.871950150E0,9.975871948E0
2.594055822E0,9.220500588E-1,1.113000035E0,9.910050392E0,1.001489112E1
2.596521361E0,9.270000458E-1,1.101000071E0,9.976950645E0,1.008023186E1
2.598986976E0,9.460500479E-1,1.089000106E0,9.931050301E0,1.003527239E1
2.601452438E0,9.390000701E-1,1.069950104E0,9.862050056E0,9.964263428E0
2.603917731E0,9.390000701E-1,1.077000022E0,9.886050224E0,9.988775662E0
2.606383270E0,9.270000458E-1,1.117050052E0,9.927000046E0,1.003256995E1
2.608848808E0,9.049500227E-1,1.089000106E0,9.940950394E0,1.004128231E1
2.611314577E0,9.270000458E-1,1.081950068E0,9.895050049E0,9.997097604E0
2.613780193E0,9.240000248E-1,1.089000106E0,9.934050560E0,1.003618741E1
2.616245745E0,8.929500580E-1,1.093950033E0,9.888000488E0,9.988325192E0
2.618711284E0,8.910000324E-1,1.101000071E0,9.903000832E0,1.000377467E1
2.621176745E0,9.270000458E-1,1.065000057E0,9.907050133E0,1.000715727E1
2.623642284E0,9.460500479E-1,1.098000050E0,9.924000740E0,1.002927742E1
2.626107822E0,9.390000701E-1,1.060050011E0,9.936000824E0,1.003641069E1
2.628573332E0,9.270000458E-1,1.078950047E0,9.916950226E0,1.001845118E1
2.631038947E0,8.740500212E-1,1.137000084E0,9.936000824E0,1.003896633E1
2.633504409E0,8.959500194E-1,1.090950012E0,9.915000916E0,1.001499583E1
2.635970024E0,8.839500546E-1,1.089000106E0,9.904950142E0,1.000376560E1
2.638435255E0,9.340500236E-1,1.074000001E0,9.868950844E0,9.971063946E0
2.640900477E0,9.559500217E-1,1.102950096E0,9.895050049E0,1.000211752E1
2.643365707E0,9.409500360E-1,1.048050046E0,9.928950310E0,1.002835231E1
2.645831169E0,8.790000677E-1,1.084050059E0,9.916950226E0,1.001467460E1
2.648296707E0,8.980500698E-1,1.105949998E0,9.907050133E0,1.000895907E1
2.650762015E0,9.030000567E-1,1.101000071E0,9.928950310E0,1.003053660E1
2.653227548E0,9.049500227E-1,1.042950034E0,9.883950233E0,9.979937451E0
2.655693087E0,9.049500227E-1,1.090950012E0,9.888000488E0,9.989077041E0
2.658158625E0,9.030000567E-1,1.084050059E0,9.934050560E0,1.003373979E1
2.660624087E0,8.929500580E-1,1.078950047E0,9.912000656E0,1.001045703E1
2.663089625E0,9.049500227E-1,1.093950033E0,9.886050224E0,9.987474669E0
2.665554933E0,9.220500588E-1,1.072050095E0,9.916950226E0,1.001725359E1
2.668020472E0,9.529500604E-1,1.105949998E0,9.879000664E0,9.986285262E0
2.670485702E0,9.439500570E-1,1.084050059E0,9.936000824E0,1.003943816E1
2.672951472E0,8.959500194E-1,1.096050024E0,9.964950562E0,1.006500332E1
2.675417087E0,9.079500437E-1,1.125000000E0,9.915000916E0,1.001984239E1
2.677882549E0,9.240000248E-1,1.062000036E0,9.886050224E0,9.985770334E0
2.680348087E0,9.120000601E-1,1.096050024E0,9.904950142E0,1.000705287E1
2.682813625E0,9.270000458E-1,1.093950033E0,9.948000908E0,1.005080981E1
2.685278933E0,9.340500236E-1,1.117050052E0,9.876000404E0,9.982766864E0
2.687744702E0,8.980500698E-1,1.077000022E0,9.912000656E0,1.001070327E1
2.690210029E0,9.289500713E-1,1.066950083E0,9.970050812E0,1.006991777E1
2.692675875E0,9.649500251E-1,1.101000071E0,9.991050720E0,1.009774352E1
2.695141414E0,9.529500604E-1,1.110000014E0,9.922050476E0,1.002932199E1
2.697606952E0,9.340500236E-1,1.084050059E0,9.900000572E0,1.000288085E1
2.700072721E0,9.460500479E-1,1.122000098E0,9.895050049E0,1.000329498E1
2.702538038E0,8.890500665E-1,1.126950026E0,9.924000740E0,1.002727366E1
2.705003577E0,9.030000567E-1,1.093950033E0,9.931050301E0,1.003184409E1
2.707469115E0,9.220500588E-1,1.102950096E0,9.892950058E0,9.996856310E0
2.709934961E0,9.030000567E-1,1.057950020E0,9.886050224E0,9.983419073E0
2.712400807E0,9.100500345E-1,1.060050011E0,9.883950233E0,9.982202628E0
2.714866673E0,9.169500470E-1,1.069950104E0,9.946050644E0,1.004537277E1
2.717332519E0,9.460500479E-1,1.098000050E0,9.904950142E0,1.001042717E1
2.719798288E0,9.630000591E-1,1.084050059E0,9.880950928E0,9.986777502E0
2.722263596E0,9.580500722E-1,1.069950104E0,9.963000298E0,1.006598371E1
2.724729365E0,9.079500437E-1,1.125000000E0,1.000995064E1,1.011380789E1
2.727194985E0,9.049500227E-1,1.141050100E0,9.922050476E0,1.002836056E1
2.729660524E0,9.270000458E-1,1.078950047E0,9.924000740E0,1.002543031E1
2.732125985E0,9.390000701E-1,1.105949998E0,9.852000237E0,9.958250609E0
2.734591524E0,9.510000348E-1,1.153050065E0,9.862050056E0,9.974665751E0
2.737057139E0,9.409500360E-1,1.072050095E0,9.912000656E0,1.001411181E1
2.739522649E0,9.120000601E-1,1.122000098E0,9.951000214E0,1.005549768E1
2.741988187E0,9.079500437E-1,1.086000085E0,9.946050644E0,1.004627756E1
2.744453956E0,8.980500698E-1,1.089000106E0,9.939000130E0,1.003873193E1
2.746919495E0,9.220500588E-1,1.072050095E0,9.955050468E0,1.005497377E1
2.749385033E0,9.480000734E-1,1.098000050E0,9.943050385E0,1.004831126E1
2.751850567E0,9.220500588E-1,1.086000085E0,9.888000488E0,9.990101408E0
2.754316105E0,9.010500312E-1,1.098000050E0,9.876000404E0,9.977618917E0
2.756781644E0,9.150000215E-1,1.078950047E0,9.960000038E0,1.005996814E1
2.759247182E0,9.700500369E-1,1.114950061E0,9.936000824E0,1.004530851E1
2.761713105E0,9.319500327E-1,1.098000050E0,9.940950394E0,1.004473144E1
2.764178951E0,9.079500437E-1,1.086000085E0,9.898050308E0,9.998758391E0
2.766644413E0,9.240000248E-1,1.120050073E0,9.904950142E0,1.001081043E1
2.769110259E0,9.120000601E-1,1.096050024E0,9.903000832E0,1.000512345E1
2.771575874E0,9.289500713E-1,1.062000036E0,9.958050728E0,1.005751294E1
2.774041721E0,9.010500312E-1,1.060050011E0,9.915000916E0,1.001213465E1
2.776507481E0,8.839500546E-1,1.081950068E0,9.934050560E0,1.003181659E1
2.778973096E0,9.100500345E-1,1.062000036E0,9.939000130E0,1.003691978E1
2.781438865E0,9.169500470E-1,1.093950033E0,9.919050217E0,1.002123152E1
2.783904481E0,9.649500251E-1,1.045950055E0,9.880950928E0,9.982901948E0
2.786369712E0,9.100500345E-1,1.090950012E0,9.904950142E0,1.000631802E1
2.788835245E0,9.169500470E-1,1.113000035E0,9.975000381E0,1.007870027E1
2.791300399E0,8.809500337E-1,1.084050059E0,9.919050217E0,1.001692541E1
2.793766014E0,8.670000434E-1,1.065000057E0,9.939000130E0,1.003342602E1
2.796231784E0,8.959500194E-1,1.102950096E0,9.895050049E0,9.996561450E0
2.798697322E0,9.199500680E-1,1.072050095E0,9.912000656E0,1.001216043E1
2.801162971E0,8.860500455E-1,1.098000050E0,9.900000572E0,1.000003501E1
2.803628433E0,9.030000567E-1,1.072050095E0,9.891000748E0,9.989824638E0
2.806093741E0,9.360000491E-1,1.089000106E0,9.927000046E0,1.003032139E1
2.808559279E0,9.120000601E-1,1.086000085E0,9.859950066E0,9.961413333E0
2.811025048E0,8.910000324E-1,1.134000063E0,9.898050308E0,1.000256153E1
2.813490899E0,9.319500327E-1,1.096050024E0,9.936000824E0,1.003961996E1
2.815956129E0,9.079500437E-1,1.132050037E0,9.927000046E0,1.003250918E1
2.818421745E0,9.580500722E-1,1.132050037E0,9.952950478E0,1.006283362E1
2.820887514E0,9.030000567E-1,1.084050059E0,9.928950310E0,1.002869024E1
2.823352822E0,9.360000491E-1,1.065000057E0,9.943050385E0,1.004363341E1
2.825818365E0,9.600000381E-1,1.105949998E0,9.919050217E0,1.002657881E1
2.828283904E0,9.289500713E-1,1.045950055E0,9.898050308E0,9.996417341E0
2.830749673E0,9.199500680E-1,1.065000057E0,9.922050476E0,1.002135814E1
2.833215211E0,9.529500604E-1,1.098000050E0,9.960000038E0,1.006555109E1
2.835680519E0,9.100500345E-1,1.069950104E0,9.940950394E0,1.003969517E1
2.838146298E0,9.120000601E-1,1.072050095E0,9.939000130E0,1.003816513E1
2.840612144E0,9.270000458E-1,1.077000022E0,9.946050644E0,1.004704840E1
2.843077683E0,9.120000601E-1,1.090950012E0,9.876000404E0,9.977840449E0
2.845543298E0,9.270000458E-1,1.102950096E0,9.946050644E0,1.004986325E1
2.848008760E0,9.319500327E-1,1.101000071E0,9.934050560E0,1.003823154E1
2.850474370E0,9.340500236E-1,1.126950026E0,9.904950142E0,1.001251732E1
2.852939909E0,9.150000215E-1,1.141050100E0,9.888000488E0,9.995587728E0
2.855405447E0,8.980500698E-1,1.105949998E0,9.892950058E0,9.995002760E0
2.857871293E0,8.929500580E-1,1.144050002E0,9.904950142E0,1.001070664E1
2.860337063E0,9.340500236E-1,1.090950012E0,9.928950310E0,1.003228168E1
2.862802678E0,9.510000348E-1,1.086000085E0,9.928950310E0,1.003333701E1
2.865268216E0,9.120000601E-1,1.117050052E0,9.898050308E0,1.000254692E1
2.867733755E0,9.079500437E-1,1.086000085E0,9.915000916E0,1.001553856E1
2.870199524E0,9.529500604E-1,1.096050024E0,9.934050560E0,1.003966135E1
2.872665063E0,8.650500178E-1,1.093950033E0,9.898050308E0,9.995821032E0
2.875130601E0,8.740500212E-1,1.093950033E0,9.883950233E0,9.982643053E0
2.877596447E0,9.220500588E-1,1.120050073E0,9.912000656E0,1.001760677E1
2.880061986E0,9.240000248E-1,1.062000036E0,9.922050476E0,1.002141236E1
2.882527832E0,9.079500437E-1,1.038000107E0,9.963000298E0,1.005799147E1
2.884993370E0,9.409500360E-1,1.086000085E0,9.952950478E0,1.005614272E1
2.887459202E0,8.770500422E-1,1.105949998E0,9.928950310E0,1.002877841E1
2.889924818E0,9.079500437E-1,1.089000106E0,9.915000916E0,1.001586430E1
2.892390356E0,9.360000491E-1,1.096050024E0,9.876000404E0,9.980621510E0
2.894856126E0,9.220500588E-1,1.086000085E0,9.915000916E0,1.001682663E1
2.897321972E0,8.929500580E-1,1.126950026E0,9.880950928E0,9.985017146E0
2.899787890E0,9.169500470E-1,1.120050073E0,9.916950226E0,1.002203629E1
2.902253659E0,9.409500360E-1,1.050000072E0,9.939000130E0,1.003850640E1
2.904719274E0,9.120000601E-1,1.042950034E0,9.985950470E0,1.008160184E1
2.907185121E0,9.199500680E-1,1.084050059E0,9.931050301E0,1.003230944E1
2.909651197E0,9.270000458E-1,1.102950096E0,9.904950142E0,1.000918904E1
2.912117049E0,9.049500227E-1,1.078950047E0,9.936000824E0,1.003529671E1
2.914582972E0,9.510000348E-1,1.077000022E0,9.948000908E0,1.005122143E1
2.917048510E0,9.559500217E-1,1.108050108E0,9.915000916E0,1.002241780E1
2.919514356E0,8.929500580E-1,1.077000022E0,9.886050224E0,9.984551962E0
2.921979818E0,9.220500588E-1,1.060050011E0,9.934050560E0,1.003290800E1
2.924445659E0,9.529500604E-1,1.074000001E0,9.951000214E0,1.005405366E1
2.926911582E0,9.220500588E-1,1.098000050E0,9.936000824E0,1.003891891E1
2.929377428E0,9.319500327E-1,1.113000035E0,9.936000824E0,1.004148457E1
2.931843274E0,9.240000248E-1,1.090950012E0,9.867000580E0,9.970037533E0
2.934309351E0,9.340500236E-1,1.114950061E0,9.934050560E0,1.003996632E1
2.936775198E0,9.240000248E-1,1.074000001E0,9.958050728E0,1.005833119E1
2.939241121E0,9.030000567E-1,1.069950104E0,9.939000130E0,1.003712737E1
2.941707198E0,9.270000458E-1,1.093950033E0,9.888000488E0,9.991426796E0
2.944173121E0,9.390000701E-1,1.093950033E0,9.910050392E0,1.001436701E1
2.946639274E0,9.030000567E-1,1.078950047E0,9.946050644E0,1.004507171E1
2.949105106E0,8.839500546E-1,1.105949998E0,9.964950562E0,1.006502523E1
2.951571260E0,9.010500312E-1,1.132050037E0,9.888000488E0,9.993296858E0
2.954036798E0,9.150000215E-1,1.110000014E0,9.844950676E0,9.949491388E0
2.956502875E0,9.120000601E-1,1.074000001E0,9.967050552E0,1.006614707E1
2.958968490E0,9.120000601E-1,1.093950033E0,9.936000824E0,1.003755863E1
2.961434567E0,9.049500227E-1,1.084050059E0,9.912000656E0,1.001208550E1
2.963900490E0,8.959500194E-1,1.102950096E0,9.946050644E0,1.004704677E1
2.966366260E0,9.270000458E-1,1.078950047E0,9.952950478E0,1.005408800E1
2.968831875E0,8.670000434E-1,1.069950104E0,9.892950058E0,9.988340360E0
2.971297413E0,9.169500470E-1,1.093950033E0,9.928950310E0,1.003103077E1
2.973762900E0,9.319500327E-1,1.105949998E0,9.907050133E0,1.001205766E1
2.976228515E0,8.959500194E-1,1.102950096E0,9.891000748E0,9.992553284E0
2.978694285E0,8.790000677E-1,1.086000085E0,9.895050049E0,9.993200327E0
2.981159823E0,9.480000734E-1,1.113000035E0,9.915000916E0,1.002221115E1
2.983625362E0,9.409500360E-1,1.093950033E0,9.898050308E0,1.000267532E1
2.986090683E0,9.010500312E-1,1.110000014E0,9.915000916E0,1.001754632E1
2.988556222E0,9.169500470E-1,1.072050095E0,9.919050217E0,1.001886451E1
2.991021683E0,9.100500345E-1,1.113000035E0,9.948000908E0,1.005135226E1
2.993487529E0,9.270000458E-1,1.089000106E0,9.934050560E0,1.003646406E1
2.995953145E0,9.240000248E-1,1.089000106E0,9.900000572E0,1.000248512E1
2.998418655E0,9.030000567E-1,1.060050011E0,9.910050392E0,1.000740795E1
3.000884194E0,9.510000348E-1,1.086000085E0,9.952950478E0,1.005708807E1
3.003349732E0,9.150000215E-1,1.093950033E0,9.967050552E0,1.006856735E1
3.005815501E0,8.860500455E-1,1.069950104E0,9.958050728E0,1.005448418E1
3.008281040E0,9.319500327E-1,1.045950055E0,9.903000832E0,1.000159826E1
3.010746568E0,9.030000567E-1,1.074000001E0,9.888000488E0,9.987063570E0
3.013212184E0,9.199500680E-1,1.090950012E0,9.952950478E0,1.005473537E1
3.015677645E0,9.289500713E-1,1.122000098E0,9.928950310E0,1.003523227E1
3.018143184E0,9.390000701E-1,1.125000000E0,9.888000488E0,9.995994187E0
3.020608722E0,9.289500713E-1,1.113000035E0,9.835950851E0,9.942215370E0
3.023074251E0,9.240000248E-1,1.078950047E0,9.852000237E0,9.953884564E0
3.025539866E0,9.150000215E-1,1.093950033E0,9.963000298E0,1.006455795E1
3.028005405E0,9.100500345E-1,1.120050073E0,9.927000046E0,1.003135251E1
3.030471174E0,9.360000491E-1,1.114950061E0,9.958050728E0,1.006389507E1
3.032936481E0,9.460500479E-1,1.098000050E0,9.874050140E0,9.979853755E0
3.035401943E0,8.980500698E-1,1.086000085E0,9.895050049E0,9.994893975E0
3.037867789E0,9.240000248E-1,1.101000071E0,9.946050644E0,1.004937315E1
3.040333097E0,9.390000701E-1,1.102950096E0,9.934050560E0,1.003910258E1
3.042798943E0,9.340500236E-1,1.113000035E0,9.922050476E0,1.002787635E1
3.045264712E0,9.390000701E-1,1.096050024E0,9.892950058E0,9.997675112E0
3.047730343E0,9.409500360E-1,1.105949998E0,9.898050308E0,1.000399482E1
3.050195804E0,9.010500312E-1,1.093950033E0,9.928950310E0,1.002958983E1
3.052661343E0,9.100500345E-1,1.090950012E0,9.916950226E0,1.001819668E1
3.055126650E0,9.169500470E-1,1.090950012E0,9.898050308E0,1.000011846E1
3.057592410E0,9.270000458E-1,1.098000050E0,9.903000832E0,1.000671568E1
3.060058025E0,9.199500680E-1,1.089000106E0,9.934050560E0,1.003581536E1
3.062523794E0,9.439500570E-1,1.093950033E0,9.898050308E0,1.000295798E1
3.064989102E0,9.340500236E-1,1.117050052E0,9.871950150E0,9.978759944E0
3.067454640E0,9.150000215E-1,1.074000001E0,9.915000916E0,1.001488613E1
3.069920405E0,8.929500580E-1,1.081950068E0,9.972000122E0,1.007019177E1
3.072385943E0,9.169500470E-1,1.114950061E0,9.936000824E0,1.004031989E1
3.074851789E0,9.010500312E-1,1.129050016E0,9.876000404E0,9.981083563E0
3.077317405E0,8.839500546E-1,1.113000035E0,9.904950142E0,1.000640665E1
3.079783251E0,9.150000215E-1,1.132050037E0,9.964950562E0,1.007070018E1
3.082248784E0,9.580500722E-1,1.078950047E0,9.946050644E0,1.005016998E1
3.084714246E0,9.049500227E-1,1.102950096E0,9.922050476E0,1.002409692E1
3.087179861E0,8.790000677E-1,1.086000085E0,9.931050301E0,1.002884826E1
3.089645323E0,8.740500212E-1,1.078950047E0,9.922050476E0,1.001874155E1
3.092110938E0,9.319500327E-1,1.089000106E0,9.940950394E0,1.004375163E1
3.094576698E0,9.360000491E-1,1.102950096E0,9.915000916E0,1.001997196E1
3.097042314E0,9.319500327E-1,1.101000071E0,9.900000572E0,1.000453614E1
3.099507852E0,8.770500422E-1,1.101000071E0,9.943050385E0,1.004219443E1
3.101973083E0,9.240000248E-1,1.102950096E0,9.900000572E0,1.000401351E1
3.104438314E0,9.150000215E-1,1.138950109E0,9.910050392E0,1.001716183E1
3.106903847E0,8.959500194E-1,1.102950096E0,9.900000572E0,1.000146173E1
3.109369078E0,9.120000601E-1,1.102950096E0,9.907050133E0,1.000988938E1
3.111834847E0,9.319500327E-1,1.098000050E0,9.891000748E0,9.995300434E0
3.114300386E0,9.030000567E-1,1.093950033E0,9.904950142E0,1.000600685E1
3.116765924E0,9.169500470E-1,1.069950104E0,9.876000404E0,9.976019978E0
3.119231521E0,9.150000215E-1,1.129050016E0,9.960000038E0,1.006546471E1
3.121697059E0,9.720000625E-1,1.101000071E0,9.886050224E0,9.994547229E0
3.124162828E0,9.460500479E-1,1.090950012E0,9.900000572E0,1.000475857E1
3.126628444E0,9.199500680E-1,1.057950020E0,9.963000298E0,1.006116004E1
3.129093982E0,8.650500178E-1,1.108050108E0,9.919050217E0,1.001816569E1
3.131559770E0,9.049500227E-1,1.120050073E0,9.940950394E0,1.004469718E1
3.134025386E0,9.510000348E-1,1.113000035E0,9.952950478E0,1.006003943E1
3.136491232E0,9.390000701E-1,1.089000106E0,9.955050468E0,1.005836330E1
3.138957078E0,9.340500236E-1,1.084050059E0,9.960000038E0,1.006226688E1
3.141422924E0,9.319500327E-1,1.074000001E0,9.892950058E0,9.994621940E0
3.143889092E0,9.120000601E-1,1.066950083E0,9.850050926E0,9.949554253E0
3.146354861E0,9.289500713E-1,1.093950033E0,9.888000488E0,9.991607907E0
3.148821015E0,9.079500437E-1,1.110000014E0,9.898050308E0,1.000139356E1
3.151286554E0,9.079500437E-1,1.093950033E0,9.879000664E0,9.980769212E0
3.153752169E0,9.340500236E-1,1.072050095E0,9.900000572E0,1.000158748E1
3.156218001E0,8.790000677E-1,1.098000050E0,9.940950394E0,1.003995717E1
3.158683847E0,9.559500217E-1,1.045950055E0,9.904950142E0,1.000579279E1
3.161150001E0,9.360000491E-1,1.069950104E0,9.943050385E0,1.004415951E1
3.163615847E0,8.929500580E-1,1.098000050E0,9.840000153E0,9.941255802E0
3.166081694E0,9.100500345E-1,1.078950047E0,9.912000656E0,1.001199687E1
3.168547550E0,9.120000601E-1,1.096050024E0,9.931050301E0,1.003288741E1
3.171013396E0,9.510000348E-1,1.098000050E0,9.927000046E0,1.003271325E1
3.173479473E0,9.340500236E-1,1.033950090E0,9.927000046E0,1.002431205E1
3.175945396E0,8.719500303E-1,1.090950012E0,9.916950226E0,1.001480757E1
3.178411242E0,9.100500345E-1,1.077000022E0,9.964950562E0,1.006421183E1
3.180877405E0,8.890500665E-1,1.102950096E0,9.922050476E0,1.002267402E1
3.183343251E0,9.120000601E-1,1.074000001E0,9.939000130E0,1.003837356E1
3.185809328E0,9.049500227E-1,1.077000022E0,9.880950928E0,9.980583892E0
3.188275251E0,9.120000601E-1,1.113000035E0,9.888000488E0,9.992150261E0
3.190741097E0,9.079500437E-1,1.114950061E0,9.915000916E0,1.001871898E1
3.193207189E0,9.079500437E-1,1.060050011E0,9.928950310E0,1.002657138E1
3.195673343E0,9.169500470E-1,1.074000001E0,9.898050308E0,9.998283517E0
3.198139266E0,9.100500345E-1,1.086000085E0,9.910050392E0,1.001082844E1
3.200605112E0,8.860500455E-1,1.084050059E0,9.940950394E0,1.003906091E1
3.203070651E0,9.199500680E-1,1.105949998E0,9.946050644E0,1.004954511E1
3.205536477E0,9.049500227E-1,1.101000071E0,9.922050476E0,1.002388255E1
3.208002246E0,8.890500665E-1,1.081950068E0,9.931050301E0,1.002929639E1
3.210468169E0,9.010500312E-1,1.113000035E0,9.912000656E0,1.001490975E1
3.212934246E0,8.910000324E-1,1.110000014E0,9.886050224E0,9.987991296E0
3.215400092E0,9.169500470E-1,1.098000050E0,9.904950142E0,1.000771896E1
3.217866039E0,9.010500312E-1,1.117050052E0,9.912000656E0,1.001536065E1
3.220331886E0,9.529500604E-1,1.113000035E0,9.948000908E0,1.005532719E1
3.222797962E0,9.270000458E-1,1.086000085E0,9.963000298E0,1.006479509E1
3.225263886E0,9.169500470E-1,1.078950047E0,9.910050392E0,1.001069575E1
3.227729962E0,9.030000567E-1,1.089000106E0,9.880950928E0,9.981709351E0
3.230195891E0,9.289500713E-1,1.126950026E0,9.871950150E0,9.979396993E0
3.232661352E0,8.809500337E-1,1.078950047E0,9.867000580E0,9.964833496E0
3.235127275E0,9.409500360E-1,1.062000036E0,9.928950310E0,1.002981980E1
3.237592814E0,8.980500698E-1,1.093950033E0,9.880950928E0,9.981804037E0
3.240058891E0,8.809500337E-1,1.090950012E0,9.927000046E0,1.002554611E1
3.242524828E0,9.340500236E-1,1.057950020E0,9.985950470E0,1.008518292E1
3.244990905E0,9.079500437E-1,1.072050095E0,9.928950310E0,1.002784717E1
3.247457058E0,8.980500698E-1,1.096050024E0,9.940950394E0,1.004142989E1
3.249922905E0,8.910000324E-1,1.090950012E0,9.952950478E0,1.005212794E1
3.252388751E0,8.980500698E-1,1.089000106E0,9.892950058E0,9.993141448E0
3.254854670E0,9.120000601E-1,1.090950012E0,9.898050308E0,9.999665792E0
3.257320516E0,9.220500588E-1,1.054949999E0,9.948000908E0,1.004618424E1
3.259786901E0,9.240000248E-1,1.078950047E0,9.958050728E0,1.005886095E1
3.262252439E0,8.980500698E-1,1.089000106E0,9.939000130E0,1.003873193E1
3.264718285E0,9.169500470E-1,1.093950033E0,9.880950928E0,9.983522189E0
3.267184150E0,9.079500437E-1,1.101000071E0,9.907050133E0,1.000930651E1
3.269649766E0,9.100500345E-1,1.146000028E0,9.948000908E0,1.005505988E1
3.272115612E0,9.220500588E-1,1.084050059E0,9.868950844E0,9.971034630E0
3.274581381E0,9.439500570E-1,1.093950033E0,9.916950226E0,1.002166005E1
3.277046997E0,9.340500236E-1,1.069950104E0,9.856950760E0,9.958750974E0
3.279513159E0,9.100500345E-1,1.066950083E0,9.883950233E0,9.982937732E0
3.281978698E0,9.360000491E-1,1.090950012E0,9.931050301E0,1.003454175E1
3.284444775E0,9.460500479E-1,1.093950033E0,9.886050224E0,9.991282521E0
3.286910390E0,9.030000567E-1,1.084050059E0,9.922050476E0,1.002185907E1
3.289376467E0,9.340500236E-1,1.084050059E0,9.936000824E0,1.003851216E1
3.291842308E0,9.460500479E-1,1.101000071E0,9.931050301E0,1.003658169E1
3.294308231E0,9.079500437E-1,1.120050073E0,9.951000214E0,1.005491376E1
3.296774308E0,9.049500227E-1,1.096050024E0,9.928950310E0,1.003017021E1
3.299240154E0,8.980500698E-1,1.045950055E0,9.916950226E0,1.001231278E1
3.301706308E0,8.929500580E-1,1.081950068E0,9.955050468E0,1.005340766E1
3.304171939E0,8.719500303E-1,1.048050046E0,9.927000046E0,1.002018142E1
3.306637708E0,8.839500546E-1,1.036050081E0,9.892950058E0,9.986251966E0
3.309103323E0,9.100500345E-1,1.102950096E0,9.900000572E0,1.000273469E1
3.311569400E0,8.790000677E-1,1.093950033E0,9.960000038E0,1.005837803E1
3.314034939E0,9.049500227E-1,1.096050024E0,9.903000832E0,1.000448328E1
3.316500587E0,9.100500345E-1,1.137000084E0,9.856950760E0,9.963956972E0
3.318966049E0,8.790000677E-1,1.066950083E0,9.879000664E0,9.975253266E0
3.321431356E0,9.079500437E-1,1.126950026E0,9.924000740E0,1.002896706E1
3.323896895E0,8.719500303E-1,1.084050059E0,9.916950226E0,1.001405828E1
3.326362664E0,9.220500588E-1,1.069950104E0,9.900000572E0,1.000024904E1
3.328828496E0,9.079500437E-1,1.102950096E0,9.904950142E0,1.000744271E1
3.331294035E0,9.360000491E-1,1.072050095E0,9.904950142E0,1.000666902E1
3.333759650E0,9.409500360E-1,1.062000036E0,9.916950226E0,1.001794055E1
3.336225112E0,8.959500194E-1,1.108050108E0,9.955050468E0,1.005651686E1
3.338690419E0,9.439500570E-1,1.105949998E0,9.907050133E0,1.001318178E1
3.341156237E0,9.169500470E-1,1.098000050E0,9.900000572E0,1.000282024E1
3.343622006E0,9.319500327E-1,1.101000071E0,9.951000214E0,1.005500558E1
3.346087621E0,8.980500698E-1,1.137000084E0,9.883950233E0,9.989581339E0
3.348553390E0,8.860500455E-1,1.126950026E0,9.892950058E0,9.996277402E0
3.351018929E0,9.100500345E-1,1.065000057E0,9.888000488E0,9.986739700E0
3.353484549E0,9.360000491E-1,1.081950068E0,9.919050217E0,1.002168994E1
3.355950318E0,9.030000567E-1,1.074000001E0,9.912000656E0,1.001082625E1
3.358415857E0,8.929500580E-1,1.105949998E0,9.924000740E0,1.002528184E1
3.360881472E0,9.580500722E-1,1.105949998E0,9.883950233E0,9.991669408E0
3.363347011E0,9.169500470E-1,1.108050108E0,9.843000412E0,9.947523789E0
3.365812563E0,9.010500312E-1,1.101000071E0,9.907050133E0,1.000868296E1
3.368278333E0,9.199500680E-1,1.101000071E0,9.936000824E0,1.003905482E1
3.370743640E0,9.270000458E-1,1.114950061E0,9.910050392E0,1.001556496E1
3.373209409E0,9.390000701E-1,1.072050095E0,9.963000298E0,1.006441193E1
3.375675025E0,9.100500345E-1,1.081950068E0,9.919050217E0,1.001929959E1
3.378141390E0,9.199500680E-1,1.077000022E0,9.871950150E0,9.973045519E0
3.380607006E0,9.199500680E-1,1.089000106E0,9.927000046E0,1.002883639E1
3.383072775E0,9.240000248E-1,1.101000071E0,9.898050308E0,1.000186868E1
3.385538621E0,9.100500345E-1,1.090950012E0,9.888000488E0,9.989540362E0
3.388004160E0,9.240000248E-1,1.074000001E0,9.915000916E0,1.001571242E1
3.390469996E0,9.480000734E-1,1.090950012E0,9.927000046E0,1.003166018E1
3.392935919E0,9.079500437E-1,1.081950068E0,9.919050217E0,1.001910906E1
3.395401688E0,9.319500327E-1,1.110000014E0,9.919050217E0,1.002437969E1
3.397867534E0,9.049500227E-1,1.129050016E0,9.912000656E0,1.001705773E1
3.400333073E0,9.100500345E-1,1.110000014E0,9.876000404E0,9.979763278E0
3.402799006E0,9.220500588E-1,1.110000014E0,9.898050308E0,1.000268345E1
3.405264852E0,8.959500194E-1,1.086000085E0,9.975000381E0,1.007386496E1
3.407730621E0,9.049500227E-1,1.098000050E0,9.898050308E0,9.999796926E0
3.410196544E0,9.199500680E-1,1.045950055E0,9.912000656E0,1.000939942E1
3.412662391E0,9.120000601E-1,1.098000050E0,9.951000214E0,1.005284803E1
3.415128241E0,9.199500680E-1,1.084050059E0,9.910050392E0,1.001152193E1
3.417594010E0,9.270000458E-1,1.089000106E0,9.900000572E0,1.000276270E1
3.420059548E0,9.030000567E-1,1.102950096E0,9.903000832E0,1.000506539E1
3.422525395E0,8.790000677E-1,1.098000050E0,9.912000656E0,1.001129373E1
3.424991241E0,9.510000348E-1,1.105949998E0,9.931050301E0,1.003759366E1
3.427456852E0,9.199500680E-1,1.110000014E0,9.883950233E0,9.988537449E0
3.429922929E0,8.929500580E-1,1.050000072E0,9.919050217E0,1.001436055E1
3.432388775E0,9.270000458E-1,1.089000106E0,9.931050301E0,1.003349443E1
3.434854391E0,9.439500570E-1,1.122000098E0,9.958050728E0,1.006542102E1
3.437320160E0,9.360000491E-1,1.149000049E0,9.915000916E0,1.002514540E1
3.439785424E0,9.049500227E-1,1.102950096E0,9.916950226E0,1.001904862E1
3.442251193E0,8.959500194E-1,1.117050052E0,9.928950310E0,1.003167890E1
3.444716808E0,9.030000567E-1,1.146000028E0,9.952950478E0,1.005932147E1
3.447182347E0,9.270000458E-1,1.090950012E0,9.960000038E0,1.006236065E1
3.449647885E0,9.319500327E-1,1.086000085E0,9.876000404E0,9.979143803E0
3.452113444E0,9.240000248E-1,1.057950020E0,9.895050049E0,9.994250835E0
3.454579213E0,9.439500570E-1,1.125000000E0,9.976950645E0,1.008445392E1
3.457044828E0,9.390000701E-1,1.141050100E0,9.946050644E0,1.005522948E1
3.459510674E0,9.439500570E-1,1.090950012E0,9.948000908E0,1.005206127E1
3.461976520E0,9.319500327E-1,1.113000035E0,9.940950394E0,1.004638217E1
3.464442333E0,9.100500345E-1,1.093950033E0,9.948000908E0,1.004926066E1
3.466908179E0,9.360000491E-1,1.078950047E0,9.931050301E0,1.003324421E1
3.469373717E0,9.439500570E-1,1.065000057E0,9.991050720E0,1.009189582E1
3.471839563E0,9.390000701E-1,1.060050011E0,9.912000656E0,1.001265121E1
3.474305410E0,9.169500470E-1,1.072050095E0,9.898050308E0,9.998074249E0
3.476771477E0,9.010500312E-1,1.066950083E0,9.967050552E0,1.006441108E1
3.479237323E0,8.929500580E-1,1.078950047E0,9.928950310E0,1.002724026E1
3.481703169E0,8.890500665E-1,1.084050059E0,9.907050133E0,1.000575919E1
3.484169092E0,9.100500345E-1,1.141050100E0,9.874050140E0,9.981335210E0
3.486635169E0,8.959500194E-1,1.105949998E0,9.891000748E0,9.992884850E0
3.489101049E0,9.079500437E-1,1.048050046E0,9.922050476E0,1.001847632E1
3.491566895E0,9.460500479E-1,1.102950096E0,9.903000832E0,1.000904267E1
3.494032434E0,9.169500470E-1,1.057950020E0,9.960000038E0,1.005791511E1
3.496498280E0,8.959500194E-1,1.078950047E0,9.934050560E0,1.003255801E1
3.498963895E0,9.150000215E-1,1.045950055E0,9.922050476E0,1.001889825E1
3.501429415E0,9.460500479E-1,1.114950061E0,9.948000908E0,1.005489166E1
3.503894953E0,9.289500713E-1,1.096050024E0,9.939000130E0,1.004231037E1
3.506360799E0,9.289500713E-1,1.126950026E0,9.895050049E0,1.000224875E1
3.508826645E0,9.319500327E-1,1.096050024E0,9.876000404E0,9.980242507E0
3.511292492E0,9.270000458E-1,1.098000050E0,9.900000572E0,1.000374652E1
3.513757996E0,8.980500698E-1,1.069950104E0,9.939000130E0,1.003668325E1
3.516223842E0,9.100500345E-1,1.090950012E0,9.943050385E0,1.004403375E1
3.518689688E0,9.460500479E-1,1.062000036E0,9.922050476E0,1.002346948E1
3.521155227E0,9.480000734E-1,1.086000085E0,9.888000488E0,9.992529909E0
3.523621073E0,9.120000601E-1,1.078950047E0,9.927000046E0,1.002702385E1
3.526086837E0,9.289500713E-1,1.093950033E0,9.879000664E0,9.982701489E0
3.528552683E0,9.120000601E-1,1.120050073E0,9.898050308E0,1.000288239E1
3.531018299E0,9.199500680E-1,1.086000085E0,9.904950142E0,1.000668485E1
3.533483837E0,9.289500713E-1,1.086000085E0,9.936000824E0,1.003824969E1
3.535949607E0,9.340500236E-1,1.125000000E0,9.876000404E0,9.983659571E0
3.538415160E0,8.890500665E-1,1.114950061E0,9.900000572E0,1.000217651E1
3.540880775E0,8.959500194E-1,1.126950026E0,9.946050644E0,1.004970976E1
3.543346545E0,9.049500227E-1,1.102950096E0,9.943050385E0,1.004488349E1
3.545812160E0,9.340500236E-1,1.054949999E0,9.912000656E0,1.001164951E1
3.548277622E0,9.120000601E-1,1.089000106E0,9.892950058E0,9.994404744E0
3.550742938E0,8.809500337E-1,1.062000036E0,9.924000740E0,1.001946644E1
3.553208477E0,8.890500665E-1,1.110000014E0,9.840000153E0,9.942238835E0
3.555674246E0,9.169500470E-1,1.113000035E0,9.871950150E0,9.976721216E0
3.558140092E0,9.289500713E-1,1.098000050E0,9.984000206E0,1.008706164E1
3.560605938E0,9.480000734E-1,1.090950012E0,9.943050385E0,1.004754333E1
3.563071760E0,8.890500665E-1,1.048050046E0,9.952950478E0,1.004738982E1
3.565537376E0,9.030000567E-1,1.090950012E0,9.924000740E0,1.002453848E1
3.568003222E0,9.169500470E-1,1.090950012E0,9.868950844E0,9.971316868E0
3.570469068E0,9.100500345E-1,1.057950020E0,9.880950928E0,9.979009998E0
3.572934914E0,9.360000491E-1,1.102950096E0,9.895050049E0,1.000023052E1
3.575400775E0,9.319500327E-1,1.090950012E0,9.928950310E0,1.003208638E1
3.577866622E0,9.460500479E-1,1.072050095E0,9.898050308E0,1.000078507E1
3.580332391E0,9.220500588E-1,1.098000050E0,9.892950058E0,9.996311383E0
3.582798006E0,9.169500470E-1,1.117050052E0,9.928950310E0,1.003357625E1
3.585263775E0,8.929500580E-1,1.105949998E0,9.934050560E0,1.003523023E1
3.587729410E0,9.240000248E-1,1.132050037E0,9.907050133E0,1.001423765E1
3.590195256E0,9.409500360E-1,1.101000071E0,9.963000298E0,1.006771886E1
3.592661333E0,9.270000458E-1,1.066950083E0,9.922050476E0,1.002221518E1
3.595126948E0,9.240000248E-1,1.074000001E0,9.871950150E0,9.973096400E0
3.597592795E0,9.150000215E-1,1.093950033E0,9.874050140E0,9.976513313E0
3.600058578E0,9.169500470E-1,1.089000106E0,9.895050049E0,9.996936235E0
3.602524193E0,8.980500698E-1,1.117050052E0,9.862050056E0,9.965657332E0
3.604989962E0,9.289500713E-1,1.069950104E0,9.919050217E0,1.001974544E1
3.607455270E0,9.220500588E-1,1.114950061E0,9.922050476E0,1.002698238E1
3.609921347E0,9.079500437E-1,1.122000098E0,9.934050560E0,1.003835734E1
3.612386933E0,9.270000458E-1,1.101000071E0,9.919050217E0,1.002292809E1
3.614852703E0,9.340500236E-1,1.081950068E0,9.883950233E0,9.986768127E0
3.617318241E0,9.030000567E-1,1.096050024E0,9.919050217E0,1.002019421E1
3.619783549E0,9.049500227E-1,1.030950069E0,9.955050468E0,1.004912048E1
3.622249395E0,9.270000458E-1,1.096050024E0,9.931050301E0,1.003426205E1
3.624715160E0,9.150000215E-1,1.125000000E0,9.943050385E0,1.004823870E1
3.627181083E0,8.740500212E-1,1.090950012E0,9.915000916E0,1.001306040E1
3.629647237E0,9.010500312E-1,1.098000050E0,9.946050644E0,1.004696067E1
3.632113006E0,8.929500580E-1,1.086000085E0,9.951000214E0,1.004983389E1
3.634578853E0,9.240000248E-1,1.078950047E0,9.979050636E0,1.007965083E1
3.637044713E0,9.150000215E-1,1.057950020E0,9.886050224E0,9.984511622E0
3.639510636E0,8.910000324E-1,1.077000022E0,9.862050056E0,9.960614510E0
3.641976405E0,9.289500713E-1,1.084050059E0,9.939000130E0,1.004100774E1
3.644442020E0,9.319500327E-1,1.117050052E0,9.934050560E0,1.004000459E1
3.646907867E0,9.439500570E-1,1.102950096E0,9.886050224E0,9.992073342E0
3.649373410E0,9.049500227E-1,1.072050095E0,9.891000748E0,9.990001088E0
3.651838948E0,8.860500455E-1,1.102950096E0,9.910050392E0,1.001052858E1
3.654304718E0,8.890500665E-1,1.081950068E0,9.963000298E0,1.006093439E1
3.656770256E0,9.270000458E-1,1.086000085E0,9.939000130E0,1.004103824E1
3.659235795E0,9.270000458E-1,1.086000085E0,9.855000496E0,9.957899379E0
3.661701429E0,9.150000215E-1,1.120050073E0,9.879000664E0,9.984307253E0
3.664167198E0,9.169500470E-1,1.101000071E0,9.871950150E0,9.975389631E0
3.666632737E0,9.010500312E-1,1.066950083E0,9.936000824E0,1.003366264E1
3.669098044E0,9.010500312E-1,1.110000014E0,9.895050049E0,9.997800091E0
3.671563583E0,9.079500437E-1,1.117050052E0,9.859950066E0,9.964476373E0
3.674029362E0,9.289500713E-1,1.054949999E0,9.912000656E0,1.001117499E1
3.676494901E0,8.929500580E-1,1.072050095E0,9.988950729E0,1.008592028E1
3.678960516E0,9.030000567E-1,1.120050073E0,9.916950226E0,1.002076958E1
3.681426285E0,9.270000458E-1,1.050000072E0,9.955050468E0,1.005310196E1
3.683892131E0,9.340500236E-1,1.090950012E0,9.904950142E0,1.000852930E1
3.686357713E0,9.220500588E-1,1.086000085E0,9.876000404E0,9.978224115E0
3.688823482E0,9.289500713E-1,1.125000000E0,9.940950394E0,1.004744087E1
3.691289097E0,9.079500437E-1,1.110000014E0,9.924000740E0,1.002707654E1
3.693754636E0,8.670000434E-1,1.053000093E0,9.940950394E0,1.003409154E1
3.696220174E0,9.240000248E-1,1.114950061E0,9.874050140E0,9.979667122E0
3.698685732E0,9.220500588E-1,1.110000014E0,9.895050049E0,9.999714587E0
3.701151501E0,9.340500236E-1,1.050000072E0,9.915000916E0,1.001409970E1
3.703617347E0,9.120000601E-1,1.086000085E0,9.879000664E0,9.980270257E0
3.706082963E0,9.150000215E-1,1.096050024E0,9.910050392E0,1.001237482E1
3.708549040E0,9.079500437E-1,1.110000014E0,9.891000748E0,9.994416897E0
3.711014660E0,9.120000601E-1,1.101000071E0,9.967050552E0,1.006906361E1
3.713480737E0,9.150000215E-1,1.050000072E0,9.931050301E0,1.002823440E1
3.715946583E0,8.740500212E-1,1.086000085E0,9.919050217E0,1.001653218E1
3.718412121E0,8.929500580E-1,1.122000098E0,9.927000046E0,1.003003360E1
3.720877737E0,9.079500437E-1,1.042950034E0,9.907050133E0,1.000308754E1
3.723343583E0,9.559500217E-1,1.093950033E0,9.943050385E0,1.004862270E1
3.725809429E0,9.289500713E-1,1.090950012E0,9.910050392E0,1.001310236E1
3.728275275E0,8.839500546E-1,1.086000085E0,9.868950844E0,9.967795877E0
3.730740737E0,9.079500437E-1,1.098000050E0,9.916950226E0,1.001877633E1
3.733206352E0,9.289500713E-1,1.084050059E0,9.958050728E0,1.005986516E1
3.735671819E0,8.929500580E-1,1.086000085E0,9.975000381E0,1.007359859E1
3.738137357E0,9.199500680E-1,1.120050073E0,9.919050217E0,1.002438913E1
3.740603203E0,9.199500680E-1,1.117050052E0,9.972000122E0,1.007645252E1
3.743069050E0,9.270000458E-1,1.098000050E0,9.924000740E0,1.002749839E1
3.745534896E0,9.270000458E-1,1.137000084E0,9.868950844E0,9.977388889E0
3.748000506E0,9.390000701E-1,1.090950012E0,9.895050049E0,9.999195394E0
3.750466275E0,9.079500437E-1,1.081950068E0,9.907050133E0,1.000722897E1
3.752931814E0,9.510000348E-1,1.101000071E0,9.924000740E0,1.003007442E1
3.755397352E0,9.409500360E-1,1.096050024E0,9.996000290E0,1.009983834E1
3.757862891E0,9.150000215E-1,1.074000001E0,9.943050385E0,1.004265662E1
3.760328506E0,9.240000248E-1,1.062000036E0,9.864000320E0,9.963941110E0
3.762794045E0,9.010500312E-1,1.057950020E0,9.847950935E0,9.945515926E0
3.765259814E0,9.360000491E-1,1.120050073E0,9.883950233E0,9.991150108E0
3.767725429E0,9.270000458E-1,1.086000085E0,9.976950645E0,1.007860454E1
3.770191199E0,9.199500680E-1,1.072050095E0,9.900000572E0,1.000028054E1
3.772656491E0,9.289500713E-1,1.102950096E0,9.898050308E0,1.000254203E1
3.775122030E0,9.289500713E-1,1.110000014E0,9.912000656E0,1.001712560E1
3.777587799E0,8.980500698E-1,1.122000098E0,9.928950310E0,1.003241907E1
3.780053030E0,8.770500422E-1,1.105949998E0,9.984000206E0,1.008328331E1
3.782518337E0,9.270000458E-1,1.077000022E0,9.936000824E0,1.003709971E1
3.784983530E0,9.240000248E-1,1.072050095E0,9.903000832E0,1.000362399E1
3.787448761E0,8.790000677E-1,1.093950033E0,9.852000237E0,9.951445948E0
3.789914299E0,8.740500212E-1,1.053000093E0,9.939000130E0,1.003277111E1
3.792379838E0,9.340500236E-1,1.108050108E0,9.960000038E0,1.006488079E1
3.794845299E0,9.030000567E-1,1.098000050E0,9.916950226E0,1.001832895E1
3.797310823E0,8.790000677E-1,1.062000036E0,9.910050392E0,1.000547770E1
3.799776054E0,9.150000215E-1,1.062000036E0,9.948000908E0,1.004628246E1
3.802241592E0,8.890500665E-1,1.108050108E0,9.898050308E0,9.999479235E0
3.804707131E0,9.010500312E-1,1.120050073E0,9.910050392E0,1.001376563E1
3.807172438E0,9.100500345E-1,1.090950012E0,9.927000046E0,1.002814504E1
3.809637934E0,9.559500217E-1,1.102950096E0,9.922050476E0,1.002882969E1
3.812103472E0,9.289500713E-1,1.054949999E0,9.931050301E0,1.003003628E1
3.814569011E0,9.150000215E-1,1.074000001E0,9.948000908E0,1.004755807E1
3.817034549E0,9.100500345E-1,1.117050052E0,9.907050133E0,1.001127535E1
3.819499857E0,9.240000248E-1,1.084050059E0,9.879000664E0,9.981161991E0
3.821965390E0,8.910000324E-1,1.129050016E0,9.951000214E0,1.005440402E1
3.824430929E0,9.319500327E-1,1.101000071E0,9.964950562E0,1.006881183E1
3.826896698E0,9.049500227E-1,1.072050095E0,9.898050308E0,9.996980837E0
3.829362314E0,9.480000734E-1,1.081950068E0,9.867000580E0,9.971309870E0
3.831828083E0,9.700500369E-1,1.113000035E0,9.867000580E0,9.976846526E0
3.834293924E0,9.120000601E-1,1.081950068E0,9.934050560E0,1.003432711E1
3.836759539E0,9.079500437E-1,1.144050002E0,9.931050301E0,1.003787745E1
3.839225309E0,9.289500713E-1,1.120050073E0,9.898050308E0,1.000444203E1
3.841690924E0,9.199500680E-1,1.089000106E0,9.892950058E0,9.995133326E0
3.844156770E0,9.460500479E-1,1.069950104E0,9.924000740E0,1.002624529E1
3.846622515E0,9.010500312E-1,1.084050059E0,9.910050392E0,1.000980292E1
3.849088054E0,9.049500227E-1,1.110000014E0,9.898050308E0,1.000112166E1
3.851553592E0,9.390000701E-1,1.090950012E0,9.922050476E0,1.002591536E1
3.854019131E0,9.270000458E-1,1.096050024E0,9.903000832E0,1.000650190E1
3.856484746E0,9.439500570E-1,1.110000014E0,9.916950226E0,1.002342474E1
3.858950592E0,9.169500470E-1,1.060050011E0,9.904950142E0,1.000362638E1
3.861416362E0,9.289500713E-1,1.060050011E0,9.922050476E0,1.002166353E1
3.863882208E0,9.409500360E-1,1.062000036E0,9.915000916E0,1.001601089E1
3.866347746E0,9.289500713E-1,1.141050100E0,9.876000404E0,9.985005135E0
3.868813285E0,9.169500470E-1,1.113000035E0,9.919050217E0,1.002332897E1
3.871279122E0,9.360000491E-1,1.105949998E0,9.912000656E0,1.001733390E1
3.873744737E0,9.169500470E-1,1.126950026E0,9.879000664E0,9.985262534E0
3.876210583E0,8.959500194E-1,1.113000035E0,9.892950058E0,9.995596849E0
3.878676045E0,8.890500665E-1,1.089000106E0,9.939000130E0,1.003793080E1
3.881141583E0,9.199500680E-1,1.062000036E0,9.946050644E0,1.004480341E1
3.883607112E0,9.030000567E-1,1.086000085E0,9.958050728E0,1.005771244E1
3.886072650E0,9.199500680E-1,1.093950033E0,9.934050560E0,1.003635369E1
3.888538266E0,9.150000215E-1,1.093950033E0,9.916950226E0,1.001897467E1
3.891003804E0,9.289500713E-1,1.089000106E0,9.919050217E0,1.002179758E1
3.893469343E0,9.120000601E-1,1.089000106E0,9.867000580E0,9.968719365E0
3.895934886E0,9.220500588E-1,1.102950096E0,9.904950142E0,1.000873181E1
3.898400425E0,9.100500345E-1,1.096050024E0,9.876000404E0,9.978221320E0
3.900866194E0,8.929500580E-1,1.126950026E0,9.952950478E0,1.005627164E1
3.903331809E0,9.079500437E-1,1.098000050E0,9.931050301E0,1.003273330E1
3.905797271E0,9.049500227E-1,1.060050011E0,9.856950760E0,9.955004714E0
3.908263122E0,9.679500461E-1,1.093950033E0,9.915000916E0,1.002202061E1
3.910728737E0,9.100500345E-1,1.072050095E0,9.940950394E0,1.003991918E1
3.913194583E0,9.030000567E-1,1.114950061E0,9.898050308E0,1.000149602E1
3.915660353E0,9.100500345E-1,1.122000098E0,9.895050049E0,9.999954538E0
3.918125891E0,9.319500327E-1,1.084050059E0,9.927000046E0,1.002940802E1
3.920591449E0,9.270000458E-1,1.069950104E0,9.936000824E0,1.003634568E1
3.923056756E0,8.650500178E-1,1.081950068E0,9.955050468E0,1.005096798E1
3.925522526E0,8.929500580E-1,1.113000035E0,9.888000488E0,9.990429547E0
3.927988064E0,9.390000701E-1,1.089000106E0,9.924000740E0,1.002763347E1
3.930453372E0,8.790000677E-1,1.081950068E0,9.879000664E0,9.976868807E0
3.932919136E0,9.240000248E-1,1.101000071E0,9.910050392E0,1.001374435E1
3.935384674E0,9.120000601E-1,1.108050108E0,9.936000824E0,1.003910512E1
3.937850290E0,9.240000248E-1,1.072050095E0,9.868950844E0,9.969917663E0
3.940315751E0,9.460500479E-1,1.122000098E0,9.940950394E0,1.004870089E1
3.942781367E0,9.600000381E-1,1.105949998E0,9.876000404E0,9.983992661E0
3.945246900E0,9.199500680E-1,1.098000050E0,9.904950142E0,1.000799428E1
3.947712362E0,9.120000601E-1,1.074000001E0,9.927000046E0,1.002649241E1
3.950177669E0,9.150000215E-1,1.066950083E0,9.922050476E0,1.002111237E1
3.952643208E0,9.150000215E-1,1.093950033E0,9.934050560E0,1.003590117E1
3.955108746E0,9.120000601E-1,1.029000044E0,9.951000214E0,1.004554580E1
3.957574593E0,9.079500437E-1,1.078950047E0,9.898050308E0,9.997995119E0
3.960040362E0,9.169500470E-1,1.089000106E0,9.898050308E0,9.999905926E0
3.962505977E0,9.289500713E-1,1.036050081E0,9.879000664E0,9.976522546E0
3.964971823E0,9.169500470E-1,1.078950047E0,9.895050049E0,9.995846441E0
3.967437362E0,9.010500312E-1,1.078950047E0,9.931050301E0,1.003004409E1
3.969903131E0,8.929500580E-1,1.053000093E0,9.922050476E0,1.001764716E1
3.972368439E0,9.199500680E-1,1.065000057E0,9.892950058E0,9.992546928E0
3.974834285E0,9.559500217E-1,1.098000050E0,9.903000832E0,1.000943905E1
3.977299746E0,9.390000701E-1,1.129050016E0,9.919050217E0,1.002716472E1
3.979765054E0,9.120000601E-1,1.081950068E0,9.900000572E0,1.000061855E1
3.982230314E0,9.319500327E-1,1.074000001E0,9.900000572E0,1.000160078E1
3.984695545E0,9.360000491E-1,1.060050011E0,9.916950226E0,1.001727028E1
3.987161083E0,9.120000601E-1,1.072050095E0,9.907050133E0,1.000653176E1
3.989626314E0,8.890500665E-1,1.101000071E0,9.916950226E0,1.001741049E1
3.992091852E0,9.100500345E-1,1.074000001E0,9.883950233E0,9.983693669E0
3.994557636E0,9.289500713E-1,1.105949998E0,9.943050385E0,1.004740387E1
3.997023174E0,8.860500455E-1,1.114950061E0,9.891000748E0,9.993002257E0
3.999488482E0,9.100500345E-1,1.084050059E0,9.919050217E0,1.001952658E1
4.001953943E0,8.890500665E-1,1.078950047E0,9.904950142E0,1.000312854E1
4.004419251E0,9.319500327E-1,1.101000071E0,9.891000748E0,9.995630436E0
4.006885025E0,9.150000215E-1,1.078950047E0,9.940950394E0,1.004110815E1
4.009350333E0,8.980500698E-1,1.125000000E0,9.927000046E0,1.003082493E1
4.011815871E0,9.169500470E-1,1.114950061E0,9.922050476E0,1.002651468E1
4.014281333E0,9.120000601E-1,1.066950083E0,9.891000748E0,9.990096215E0
4.016746641E0,9.100500345E-1,1.110000014E0,9.895050049E0,9.998615232E0
4.019212102E0,9.150000215E-1,1.096050024E0,9.915000916E0,1.001727477E1
4.021677410E0,9.409500360E-1,1.066950083E0,9.915000916E0,1.001653696E1
4.024142948E0,9.120000601E-1,1.090950012E0,9.972000122E0,1.007286962E1
4.026608718E0,9.360000491E-1,1.108050108E0,9.895050049E0,1.000079430E1
4.029074256E0,9.079500437E-1,1.062000036E0,9.891000748E0,9.989199825E0
4.031539809E0,9.220500588E-1,1.065000057E0,9.892950058E0,9.992740479E0
4.034005347E0,9.360000491E-1,1.081950068E0,9.936000824E0,1.003846723E1
4.036470655E0,8.910000324E-1,1.089000106E0,9.883950233E0,9.983600278E0
4.038936424E0,9.100500345E-1,1.081950068E0,9.910050392E0,1.001038989E1
4.041402270E0,9.510000348E-1,1.089000106E0,9.900000572E0,1.000501542E1
4.043867814E0,9.220500588E-1,1.089000106E0,9.934050560E0,1.003600807E1
4.046333352E0,9.199500680E-1,1.098000050E0,9.922050476E0,1.002491885E1
4.048798891E0,8.980500698E-1,1.057950020E0,9.910050392E0,1.000674028E1
4.051264429E0,9.460500479E-1,1.114950061E0,9.927000046E0,1.003411452E1
4.053730044E0,9.150000215E-1,1.146000028E0,9.915000916E0,1.002286308E1
4.056195564E0,9.409500360E-1,1.090950012E0,9.916950226E0,1.002105088E1
4.058661410E0,9.480000734E-1,1.042950034E0,9.927000046E0,1.002655369E1
4.061127179E0,9.049500227E-1,1.050000072E0,9.928950310E0,1.002524259E1
4.063592795E0,9.409500360E-1,1.069950104E0,9.912000656E0,1.001388722E1
4.066058564E0,9.169500470E-1,1.078950047E0,9.936000824E0,1.003638595E1
4.068523809E0,8.599500656E-1,1.093950033E0,9.886050224E0,9.983497875E0
4.070989424E0,9.100500345E-1,1.065000057E0,9.907050133E0,1.000560136E1
4.073454886E0,9.559500217E-1,1.105949998E0,9.919050217E0,1.002619185E1
4.075920732E0,9.480000734E-1,1.072050095E0,9.907050133E0,1.000987702E1
4.078386270E0,9.120000601E-1,1.050000072E0,9.936000824E0,1.003286383E1
4.080851588E0,9.319500327E-1,1.072050095E0,9.934050560E0,1.003509755E1
4.083317126E0,9.100500345E-1,1.066950083E0,9.916950226E0,1.001561158E1
4.085782588E0,9.150000215E-1,1.101000071E0,9.903000832E0,1.000594082E1
4.088248203E0,9.580500722E-1,1.069950104E0,9.852000237E0,9.956131871E0
4.090714049E0,9.360000491E-1,1.090950012E0,9.915000916E0,1.001865815E1
4.093179492E0,8.860500455E-1,1.089000106E0,9.900000572E0,9.999050817E0
4.095645107E0,8.980500698E-1,1.081950068E0,9.892950058E0,9.992375630E0
4.098110646E0,9.150000215E-1,1.138950109E0,9.934050560E0,1.004090598E1
4.100576184E0,9.340500236E-1,1.069950104E0,9.934050560E0,1.003506867E1
4.103041954E0,9.220500588E-1,1.113000035E0,9.976950645E0,1.008109565E1
4.105507491E0,9.270000458E-1,1.114950061E0,9.883950233E0,9.989740484E0
4.107973106E0,9.030000567E-1,1.102950096E0,9.915000916E0,1.001694320E1
4.110439183E0,9.270000458E-1,1.102950096E0,9.895050049E0,9.999392155E0
4.112905030E0,9.270000458E-1,1.054949999E0,9.910050392E0,1.000906326E1
4.115370876E0,8.790000677E-1,1.065000057E0,9.904950142E0,1.000074515E1
4.117836477E0,9.010500312E-1,1.110000014E0,9.874050140E0,9.977016456E0
4.120302246E0,9.010500312E-1,1.089000106E0,9.970050812E0,1.006974307E1
4.122767862E0,9.100500345E-1,1.062000036E0,9.916950226E0,1.001508547E1
4.125233400E0,9.100500345E-1,1.069950104E0,9.963000298E0,1.006152867E1
4.127699246E0,9.529500604E-1,1.090950012E0,9.879000664E0,9.984635189E0
4.130164799E0,9.360000491E-1,1.129050016E0,9.910050392E0,1.001798127E1
4.132630337E0,9.289500713E-1,1.074000001E0,9.931050301E0,1.003205783E1
4.135096106E0,8.929500580E-1,1.096050024E0,9.879000664E0,9.979646265E0
4.137561722E0,9.010500312E-1,1.098000050E0,9.868950844E0,9.970641204E0
4.140027260E0,9.010500312E-1,1.074000001E0,9.883950233E0,9.982877310E0
4.142493045E0,9.340500236E-1,1.110000014E0,9.951000214E0,1.005618987E1
4.144958891E0,9.289500713E-1,1.117050052E0,9.927000046E0,1.003275032E1
4.147424506E0,9.510000348E-1,1.101000071E0,9.880950928E0,9.987481838E0
4.149890275E0,9.220500588E-1,1.060050011E0,9.916950226E0,1.001597644E1
4.152355814E0,8.980500698E-1,1.078950047E0,9.955050468E0,1.005353952E1
4.154821356E0,9.010500312E-1,1.138950109E0,9.916950226E0,1.002272420E1
4.157286895E0,9.390000701E-1,1.096050024E0,9.946050644E0,1.005022240E1
4.159752741E0,9.100500345E-1,1.114950061E0,9.936000824E0,1.003969208E1
4.162218049E0,9.030000567E-1,1.081950068E0,9.976950645E0,1.007598974E1
4.164683587E0,9.360000491E-1,1.096050024E0,9.880950928E0,9.985520166E0
4.167149126E0,9.460500479E-1,1.105949998E0,9.924000740E0,1.003015089E1
4.169614356E0,9.049500227E-1,1.086000085E0,9.874050140E0,9.974727911E0
4.172080126E0,9.240000248E-1,1.125000000E0,9.907050133E0,1.001344313E1
4.174545433E0,9.580500722E-1,1.093950033E0,9.940950394E0,1.004674481E1
4.177011203E0,9.199500680E-1,1.120050073E0,9.927000046E0,1.003225549E1
4.179476809E0,8.980500698E-1,1.113000035E0,9.931050301E0,1.003349506E1
4.181942578E0,9.240000248E-1,1.078950047E0,9.922050476E0,1.002322278E1
4.184408424E0,8.980500698E-1,1.033950090E0,9.936000824E0,1.002993814E1
4.186873963E0,9.220500588E-1,1.060050011E0,9.934050560E0,1.003290800E1
4.189339578E0,9.409500360E-1,1.084050059E0,9.934050560E0,1.003722631E1
